time,dt,accel_x,accel_y,accel_z,union_g,gyro_x,gyro_y,gyro_z,pressure,temp,ag
0.088057,0.068285,-0.21546,-0.234612,-9.820188,-9.825353,0,-0.005325,0.00426,97488.03,31.83,-0.000731482
0.157563,0.069506,-0.208278,-0.253764,-9.836946,-9.842423,0.001065,-0.005325,0.00426,97475.63,31.83,-0.017801482
0.22865,0.071087,-0.177156,-0.256158,-9.82737,-9.832304,0.00426,-0.009585,0.001065,97475.63,31.83,-0.007682482
0.29598,0.06733,-0.198702,-0.256158,-9.813006,-9.81836,0,-0.005325,0.003195,97483.9,31.83,0.006261518
0.363201,0.067221,-0.234612,-0.213066,-9.822582,-9.827693,0.001065,-0.00426,0.003195,97479.76,31.83,-0.003071482
0.430375,0.067173,-0.21546,-0.25137,-9.817794,-9.823375,0,-0.00639,0.00426,97479.76,31.85,0.001246518
0.497999,0.067625,-0.189126,-0.256158,-9.836946,-9.842098,0.005325,-0.00426,0.00426,97479.76,31.84,-0.017476482
0.568686,0.070687,-0.19152,-0.25137,-9.813006,-9.818093,-0.001065,-0.003195,0.00426,97488.03,31.84,0.006528518
0.638752,0.070066,-0.246582,-0.225036,-9.829764,-9.835431,0.003195,-0.00639,0.005325,97483.9,31.84,-0.010809482
0.709644,0.070892,-0.232218,-0.234612,-9.810612,-9.816164,0.00213,-0.00639,0.005325,97488.03,31.84,0.008457518
0.777408,0.067765,-0.184338,-0.241794,-9.798642,-9.803358,-0.00213,-0.00426,0.001065,97479.76,31.83,0.021263518
0.844307,0.066899,-0.205884,-0.225036,-9.829764,-9.834495,0.00213,-0.005325,0.003195,97483.9,31.84,-0.009873482
0.911015,0.066708,-0.22743,-0.246582,-9.796248,-9.80199,0.001065,-0.00426,0.005325,97475.63,31.83,0.022631518
0.978257,0.067242,-0.237006,-0.260946,-9.829764,-9.836083,0.001065,-0.005325,0.00426,97479.76,31.84,-0.011461482
1.045676,0.067419,-0.220248,-0.232218,-9.85131,-9.856508,0.005325,-0.00639,0.005325,97471.5,31.84,-0.031886482
1.11207,0.066394,-0.198702,-0.27531,-9.805824,-9.8117,0.003195,-0.005325,0.005325,97479.76,31.84,0.012921518
1.179379,0.067309,-0.198702,-0.232218,-9.820188,-9.824943,-0.00213,-0.00426,0.00213,97488.03,31.84,-0.000321482
1.247101,0.067721,-0.237006,-0.234612,-9.834552,-9.840205,0,-0.005325,0.00213,97471.5,31.83,-0.015583482
1.313714,0.066614,-0.205884,-0.258552,-9.822582,-9.828141,0,-0.005325,0.005325,97475.63,31.84,-0.003519482
1.380989,0.067275,-0.232218,-0.26334,-9.8154,-9.821678,-0.00213,-0.003195,0.00213,97471.5,31.84,0.002943518
1.447985,0.066995,-0.189126,-0.2394,-9.82737,-9.832105,0.00213,-0.003195,0.00213,97479.76,31.84,-0.007483482
1.515479,0.067494,-0.225036,-0.246582,-9.836946,-9.842609,0.003195,-0.007455,0.00426,97479.76,31.84,-0.017987482
1.583254,0.067775,-0.25137,-0.258552,-9.836946,-9.843553,0.003195,-0.00426,0.00426,97479.76,31.84,-0.018931482
1.65033,0.067076,-0.205884,-0.2394,-9.82737,-9.832441,0.00213,-0.003195,0.003195,97475.63,31.84,-0.007819482
1.717117,0.066787,-0.196308,-0.244188,-9.846522,-9.851505,0.00426,-0.005325,0.00639,97471.5,31.84,-0.026883482
1.784499,0.067382,-0.20349,-0.25137,-9.813006,-9.818334,-0.001065,-0.00639,0.003195,97479.76,31.84,0.006287518
1.851784,0.067286,-0.248976,-0.229824,-9.810612,-9.816461,0.003195,-0.005325,0.003195,97479.76,31.84,0.008160518
1.918355,0.066571,-0.193914,-0.272916,-9.822582,-9.828286,0.001065,-0.005325,0.003195,97467.36,31.84,-0.003664482
1.984758,0.066404,-0.22743,-0.260946,-9.82737,-9.833464,0.00426,-0.005325,0.00213,97479.76,31.84,-0.008842482
2.051662,0.066904,-0.189126,-0.2394,-9.844128,-9.848855,-0.001065,-0.005325,0.00426,97479.76,31.84,-0.024233482
2.118781,0.067119,-0.19152,-0.244188,-9.82737,-9.832269,0.00213,-0.007455,0.003195,97475.63,31.84,-0.007647482
2.1861,0.067318,-0.229824,-0.2394,-9.832158,-9.837757,0.003195,-0.007455,0.00213,97479.76,31.84,-0.013135482
2.253221,0.067121,-0.205884,-0.222642,-9.836946,-9.841619,-0.001065,-0.003195,0.003195,97479.76,31.84,-0.016997482
2.32057,0.067349,-0.222642,-0.246582,-9.820188,-9.825806,0.001065,-0.00426,0.00426,97471.5,31.84,-0.001184482
2.387693,0.067123,-0.232218,-0.260946,-9.817794,-9.824006,0.003195,-0.00213,0.003195,97488.03,31.84,0.000615518
2.454389,0.066696,-0.213066,-0.246582,-9.796248,-9.801667,0,-0.003195,0.00426,97483.9,31.84,0.022954518
2.521879,0.067491,-0.205884,-0.244188,-9.8154,-9.820595,0.00213,-0.005325,0.003195,97471.5,31.84,0.004026518
2.589094,0.067215,-0.222642,-0.280098,-9.82737,-9.833882,0.003195,-0.007455,0,97471.5,31.83,-0.009260482
2.656333,0.067239,-0.234612,-0.213066,-9.79146,-9.796588,-0.001065,-0.005325,0.00213,97471.5,31.83,0.028033518
2.723264,0.066931,-0.222642,-0.241794,-9.805824,-9.811331,0.001065,-0.00426,0.00426,97483.9,31.84,0.013290518
2.790325,0.06706,-0.22743,-0.256158,-9.829764,-9.835731,0.00213,-0.00639,0.003195,97479.76,31.83,-0.011109482
2.857601,0.067276,-0.234612,-0.265734,-9.834552,-9.840938,0,-0.001065,0.003195,97479.76,31.83,-0.016316482
2.924663,0.067062,-0.21546,-0.26334,-9.82737,-9.833258,0,-0.005325,0.001065,97479.76,31.84,-0.008636482
2.991913,0.06725,-0.234612,-0.26334,-9.817794,-9.824127,0.003195,-0.007455,0.005325,97479.76,31.83,0.000494518
3.059145,0.067232,-0.229824,-0.258552,-9.83934,-9.845419,-0.001065,-0.005325,0.00426,97475.63,31.84,-0.020797482
3.126006,0.066861,-0.198702,-0.232218,-9.83934,-9.844085,0.001065,-0.00426,0.00426,97471.5,31.83,-0.019463482
3.193142,0.067136,-0.196308,-0.237006,-9.801036,-9.805866,0.003195,-0.00639,0.005325,97483.9,31.83,0.018755518
3.259945,0.066803,-0.222642,-0.2394,-9.810612,-9.816058,0,-0.00639,0.00213,97475.63,31.83,0.008563518
3.327373,0.067428,-0.210672,-0.229824,-9.813006,-9.817957,0.003195,-0.00426,0.00426,97479.76,31.83,0.006664518
3.394377,0.067005,-0.21546,-0.258552,-9.834552,-9.840309,0.001065,-0.00639,0.00426,97479.76,31.83,-0.015687482
3.461981,0.067603,-0.244188,-0.270522,-9.808218,-9.814986,0.005325,-0.003195,0.00426,97467.36,31.84,0.009635518
3.528603,0.066623,-0.222642,-0.253764,-9.796248,-9.802063,0,-0.00639,0.003195,97475.63,31.83,0.022558518
3.595974,0.06737,-0.21546,-0.2394,-9.822582,-9.827861,0.00213,-0.007455,0.005325,97479.76,31.84,-0.003239482
3.66235,0.066376,-0.21546,-0.248976,-9.85131,-9.856811,0.00426,-0.005325,0.00213,97479.76,31.82,-0.032189482
3.729063,0.066713,-0.222642,-0.237006,-9.829764,-9.835141,0,-0.005325,0.005325,97488.03,31.84,-0.010519482
3.796655,0.067592,-0.196308,-0.292068,-9.832158,-9.838454,0.001065,-0.00426,0.003195,97475.63,31.83,-0.013832482
3.863252,0.066597,-0.222642,-0.248976,-9.817794,-9.823474,0,-0.00426,0.003195,97467.36,31.82,0.001147518
3.930323,0.067071,-0.201096,-0.229824,-9.813006,-9.817757,0,-0.00426,0.005325,97483.9,31.84,0.006864518
3.998001,0.067678,-0.232218,-0.265734,-9.824976,-9.831312,0.00213,-0.00639,0.00639,97488.03,31.83,-0.006690482
4.065536,0.067536,-0.222642,-0.244188,-9.844128,-9.849673,0.003195,-0.005325,0.00213,97475.63,31.83,-0.025051482
4.132915,0.067379,-0.241794,-0.232218,-9.805824,-9.811553,0,-0.005325,0.00213,97475.63,31.84,0.013068518
4.200236,0.06732,-0.201096,-0.246582,-9.83934,-9.844483,0.003195,-0.005325,0.005325,97479.76,31.83,-0.019861482
4.267503,0.067267,-0.220248,-0.25137,-9.8154,-9.821088,0.00213,-0.007455,0.00426,97471.5,31.83,0.003533518
4.33733,0.069827,-0.20349,-0.222642,-9.822582,-9.827212,0,0,0.00426,97483.9,31.83,-0.002590482
4.407601,0.070271,-0.222642,-0.232218,-9.824976,-9.830242,0.003195,-0.005325,0.00426,97475.63,31.83,-0.005620482
4.478304,0.070702,-0.21546,-0.26334,-9.834552,-9.840436,-0.00213,-0.005325,0.00213,97475.63,31.83,-0.015814482
4.545556,0.067252,-0.217854,-0.241794,-9.82737,-9.832758,-0.00213,-0.005325,0.003195,97479.76,31.84,-0.008136482
4.616931,0.071375,-0.193914,-0.244188,-9.822582,-9.82753,0.00426,-0.00426,0.00426,97483.9,31.83,-0.002908482
4.686085,0.069154,-0.220248,-0.260946,-9.820188,-9.826123,0.00213,-0.005325,0.001065,97492.16,31.83,-0.001501482
4.758411,0.072326,-0.20349,-0.246582,-9.83934,-9.844533,0.00426,-0.00639,0.003195,97479.76,31.83,-0.019911482
4.825538,0.067127,-0.205884,-0.265734,-9.841734,-9.847473,0.00213,-0.003195,0.00426,97475.63,31.83,-0.022851482
4.892941,0.067403,-0.210672,-0.241794,-9.86328,-9.868492,0,-0.00426,0.00426,97488.03,31.83,-0.043870482
4.960027,0.067087,-0.22743,-0.258552,-9.832158,-9.838186,0.005325,-0.005325,0.00213,97483.9,31.83,-0.013564482
5.026337,0.06631,-0.213066,-0.248976,-9.822582,-9.828047,0.001065,-0.00639,0.00426,97475.63,31.83,-0.003425482
5.093655,0.067318,-0.234612,-0.248976,-9.829764,-9.835715,0.003195,-0.00639,0.005325,97483.9,31.83,-0.011093482
5.160797,0.067142,-0.213066,-0.225036,-9.8154,-9.820291,0.001065,-0.005325,0.003195,97479.76,31.84,0.004330518
5.227668,0.066871,-0.232218,-0.244188,-9.829764,-9.835538,0,-0.00639,0.00213,97475.63,31.83,-0.010916482
5.295029,0.067361,-0.234612,-0.21546,-9.793854,-9.799033,0.001065,-0.00426,0.00426,97479.76,31.83,0.025588518
5.362073,0.067044,-0.198702,-0.246582,-9.80343,-9.808543,-0.00213,-0.00213,0.003195,97483.9,31.83,0.016078518
5.429035,0.066962,-0.217854,-0.244188,-9.846522,-9.851958,0.001065,-0.00426,0.00426,97479.76,31.83,-0.027336482
5.496418,0.067383,-0.198702,-0.237006,-9.8154,-9.820271,0.001065,-0.005325,0.00213,97479.76,31.84,0.004350518
5.56324,0.066822,-0.198702,-0.241794,-9.832158,-9.837138,0,-0.005325,0.00426,97467.36,31.84,-0.012516482
5.63035,0.067111,-0.208278,-0.246582,-9.836946,-9.84224,0.00213,-0.00426,0.00426,97479.76,31.83,-0.017618482
5.697782,0.067431,-0.244188,-0.234612,-9.848916,-9.854736,-0.00213,-0.005325,0.00213,97475.63,31.82,-0.030114482
5.765568,0.067786,-0.213066,-0.237006,-9.80343,-9.808609,0,-0.00639,0.00426,97475.63,31.83,0.016012518
5.832837,0.067268,-0.220248,-0.284886,-9.846522,-9.853104,0.00426,-0.005325,0.00426,97483.9,31.82,-0.028482482
5.899559,0.066722,-0.210672,-0.246582,-9.834552,-9.839898,0.001065,-0.003195,0.005325,97479.76,31.83,-0.015276482
5.967222,0.067663,-0.21546,-0.225036,-9.846522,-9.85145,-0.00213,-0.00426,0.003195,97475.63,31.83,-0.026828482
6.03406,0.066839,-0.196308,-0.25137,-9.832158,-9.83733,0.003195,-0.007455,0.001065,97479.76,31.83,-0.012708482
6.104897,0.070836,-0.237006,-0.265734,-9.836946,-9.843388,0.00213,-0.003195,0.00639,97479.76,31.82,-0.018766482
6.174897,0.07,-0.201096,-0.246582,-9.82737,-9.83252,0,-0.00426,0.005325,97479.76,31.83,-0.007898482
6.246721,0.071824,-0.241794,-0.260946,-9.834552,-9.840984,0.003195,-0.00426,0.00426,97479.76,31.82,-0.016362482
6.313557,0.066836,-0.220248,-0.225036,-9.820188,-9.825235,0,-0.00213,0.00213,97488.03,31.83,-0.000613482
6.380672,0.067115,-0.201096,-0.2394,-9.822582,-9.827557,0.00426,-0.00639,0.00426,97475.63,31.82,-0.002935482
6.447796,0.067123,-0.234612,-0.244188,-9.848916,-9.854736,0.001065,-0.003195,0.003195,97475.63,31.83,-0.030114482
6.515287,0.067491,-0.210672,-0.241794,-9.82737,-9.832601,0,-0.00639,0.00213,97475.63,31.82,-0.007979482
6.582344,0.067057,-0.21546,-0.241794,-9.805824,-9.811171,0.00213,-0.005325,0.001065,97471.5,31.82,0.013450518
6.648989,0.066645,-0.244188,-0.229824,-9.813006,-9.818734,0.00213,-0.00426,0.00213,97488.03,31.82,0.005887518
6.7163,0.067312,-0.244188,-0.22743,-9.8154,-9.821071,0.001065,-0.005325,0.00426,97479.76,31.82,0.003550518
6.783225,0.066924,-0.189126,-0.268128,-9.836946,-9.842417,0.00426,-0.00213,0.003195,97475.63,31.83,-0.017795482
6.850355,0.067131,-0.229824,-0.256158,-9.801036,-9.807076,0.003195,-0.00426,0.00213,97479.76,31.83,0.017545518
6.917743,0.067388,-0.201096,-0.229824,-9.832158,-9.836899,0.001065,-0.003195,0.001065,97483.9,31.83,-0.012277482
6.984939,0.067196,-0.220248,-0.234612,-9.8154,-9.820674,0.003195,-0.007455,0.00426,97475.63,31.83,0.003947518
7.051799,0.06686,-0.21546,-0.270522,-9.83934,-9.845416,0.00213,-0.005325,0.003195,97475.63,31.83,-0.020794482
7.118377,0.066578,-0.22743,-0.237006,-9.82737,-9.832858,0.001065,-0.005325,0.00213,97479.76,31.82,-0.008236482
7.186419,0.068042,-0.20349,-0.25137,-9.813006,-9.818334,-0.001065,-0.003195,0,97483.9,31.82,0.006287518
7.253752,0.067333,-0.222642,-0.241794,-9.832158,-9.83765,0.003195,-0.007455,0.001065,97479.76,31.83,-0.013028482
7.321012,0.06726,-0.213066,-0.253764,-9.8154,-9.820991,0.001065,-0.003195,0.00639,97496.3,31.82,0.003630518
7.391388,0.070375,-0.20349,-0.248976,-9.841734,-9.846986,0,-0.005325,0.005325,97483.9,31.82,-0.022364482
7.46156,0.070173,-0.20349,-0.260946,-9.801036,-9.806621,-0.001065,-0.007455,0,97483.9,31.82,0.018000518
7.532679,0.071119,-0.201096,-0.237006,-9.813006,-9.817927,0.003195,-0.005325,0.003195,97479.76,31.83,0.006694518
7.59999,0.067311,-0.169974,-0.246582,-9.820188,-9.824754,0.003195,-0.00639,0.005325,97488.03,31.83,-0.000132482
7.666893,0.066903,-0.198702,-0.265734,-9.834552,-9.840148,0.003195,-0.007455,0.003195,97479.76,31.82,-0.015526482
7.733726,0.066833,-0.21546,-0.253764,-9.844128,-9.849755,0.001065,-0.003195,0.00426,97479.76,31.82,-0.025133482
7.800854,0.067127,-0.20349,-0.232218,-9.820188,-9.825041,0.003195,-0.007455,0.005325,97488.03,31.83,-0.000419482
7.867846,0.066992,-0.205884,-0.256158,-9.822582,-9.828078,0.00213,-0.003195,0.00426,97483.9,31.83,-0.003456482
7.93508,0.067234,-0.22743,-0.253764,-9.82737,-9.833276,-0.001065,-0.00426,0.003195,97475.63,31.82,-0.008654482
8.002461,0.067381,-0.217854,-0.246582,-9.836946,-9.842447,0.00426,-0.003195,0.00426,97483.9,31.82,-0.017825482
8.069196,0.066735,-0.220248,-0.237006,-9.8154,-9.820731,0.003195,-0.001065,0.003195,97483.9,31.83,0.003890518
8.13651,0.067314,-0.21546,-0.225036,-9.848916,-9.853842,0.001065,-0.00426,0.003195,97479.76,31.82,-0.029220482
8.203521,0.067011,-0.217854,-0.253764,-9.829764,-9.835452,0.00213,-0.00426,0.003195,97488.03,31.81,-0.010830482
8.270827,0.067306,-0.241794,-0.270522,-9.822582,-9.829281,0.003195,-0.00852,0.00639,97479.76,31.82,-0.004659482
8.338308,0.067481,-0.213066,-0.237006,-9.820188,-9.825358,0.00213,-0.00639,0.00426,97488.03,31.82,-0.000736482
8.404741,0.066434,-0.21546,-0.244188,-9.83934,-9.844728,0.00213,-0.00639,0.003195,97492.16,31.82,-0.020106482
8.471945,0.067204,-0.208278,-0.280098,-9.824976,-9.831174,0.00213,-0.007455,0.00213,97488.03,31.82,-0.006552482
8.539105,0.06716,-0.198702,-0.234612,-9.853704,-9.858499,0.001065,-0.00426,0.005325,97479.76,31.82,-0.033877482
8.60642,0.067314,-0.22743,-0.217854,-9.824976,-9.830022,0.003195,-0.00426,0.003195,97483.9,31.82,-0.005400482
8.673415,0.066996,-0.213066,-0.258552,-9.848916,-9.854613,0.003195,-0.00426,0.00213,97488.03,31.83,-0.029991482
8.740156,0.066741,-0.225036,-0.229824,-9.8154,-9.820669,-0.001065,-0.005325,0.00426,97479.76,31.83,0.003952518
8.808534,0.068378,-0.21546,-0.241794,-9.832158,-9.83749,0.00213,-0.005325,0.003195,97479.76,31.83,-0.012868482
8.875734,0.0672,-0.217854,-0.248976,-9.834552,-9.840115,0.005325,-0.005325,0.00426,97471.5,31.82,-0.015493482
8.946346,0.070612,-0.217854,-0.246582,-9.813006,-9.818521,0,-0.003195,0.003195,97479.76,31.82,0.006100518
9.018339,0.071993,-0.222642,-0.244188,-9.8154,-9.820961,0.00213,-0.003195,0.00639,97479.76,31.82,0.003660518
9.087326,0.068986,-0.205884,-0.256158,-9.8154,-9.8209,0,-0.00426,0.00426,97488.03,31.81,0.003721518
9.154401,0.067076,-0.196308,-0.25137,-9.824976,-9.830151,0.001065,-0.001065,0.00213,97471.5,31.82,-0.005529482
9.22166,0.067259,-0.244188,-0.258552,-9.8154,-9.821841,0.003195,-0.00852,0.005325,97492.16,31.82,0.002780518
9.289175,0.067515,-0.208278,-0.2394,-9.83934,-9.844455,0.001065,-0.00426,0.00213,97479.76,31.83,-0.019833482
9.356514,0.067338,-0.210672,-0.256158,-9.817794,-9.823394,0.001065,-0.00639,0.00213,97488.03,31.82,0.001227518
9.423847,0.067333,-0.20349,-0.241794,-9.836946,-9.842021,0.00426,-0.00426,0.003195,97488.03,31.82,-0.017399482
9.490413,0.066566,-0.196308,-0.26334,-9.834552,-9.840035,0.00213,-0.00639,0.003195,97479.76,31.82,-0.015413482
9.557519,0.067106,-0.21546,-0.25137,-9.82737,-9.832945,0,-0.00426,0.00213,97488.03,31.83,-0.008323482
9.624237,0.066718,-0.189126,-0.244188,-9.824976,-9.82983,0.001065,-0.00639,0.003195,97492.16,31.82,-0.005208482
9.691593,0.067356,-0.222642,-0.248976,-9.832158,-9.83783,0.001065,-0.00639,0.005325,97471.5,31.82,-0.013208482
9.758325,0.066732,-0.217854,-0.258552,-9.848916,-9.854717,0.00213,-0.00639,0.00426,97483.9,31.82,-0.030095482
9.825382,0.067056,-0.193914,-0.256158,-9.846522,-9.851762,0.00426,-0.007455,0,97488.03,31.83,-0.027140482
9.892815,0.067433,-0.193914,-0.265734,-9.824976,-9.830482,0.003195,-0.00639,0.00426,97479.76,31.82,-0.005860482
9.960025,0.06721,-0.220248,-0.229824,-9.813006,-9.818168,0.00213,-0.00426,0.003195,97483.9,31.82,0.006453518
10.026948,0.066922,-0.237006,-0.244188,-9.810612,-9.816512,0.001065,-0.00426,0.005325,97492.16,31.83,0.008109518
10.094418,0.067471,-0.213066,-0.268128,-9.796248,-9.802233,0.00213,-0.00426,0.00426,97488.03,31.82,0.022388518
10.164357,0.069939,-0.220248,-0.241794,-9.8154,-9.820848,0.001065,-0.00426,0.00426,97483.9,31.82,0.003773518
10.232505,0.068148,-0.22743,-0.232218,-9.832158,-9.837529,0,-0.00639,0.005325,97475.63,31.81,-0.012907482
10.305674,0.073169,-0.2394,-0.22743,-9.822582,-9.828131,0.001065,-0.005325,0.00426,97479.76,31.83,-0.003509482
10.373013,0.067339,-0.21546,-0.229824,-9.836946,-9.841989,0.001065,-0.005325,0.00213,97492.16,31.82,-0.017367482
10.440645,0.067631,-0.210672,-0.260946,-9.82737,-9.833091,0.003195,-0.00426,0.00213,97488.03,31.82,-0.008469482
10.507656,0.067012,-0.22743,-0.260946,-9.817794,-9.823894,0,-0.00426,0.00426,97479.76,31.82,0.000727518
10.574965,0.067309,-0.241794,-0.241794,-9.844128,-9.850065,0,-0.00213,0.00213,97483.9,31.81,-0.025443482
10.641848,0.066883,-0.225036,-0.232218,-9.853704,-9.859009,0.001065,-0.005325,0.001065,97483.9,31.82,-0.034387482
10.708887,0.067039,-0.21546,-0.282492,-9.841734,-9.848145,0.00426,-0.005325,0.00213,97483.9,31.82,-0.023523482
10.775971,0.067084,-0.229824,-0.232218,-9.836946,-9.84237,0,-0.003195,0.00213,97479.76,31.82,-0.017748482
10.843124,0.067153,-0.198702,-0.237006,-9.83934,-9.8442,0.001065,-0.00426,0.00426,97479.76,31.82,-0.019578482
10.910504,0.06738,-0.21546,-0.260946,-9.801036,-9.806876,0.00213,-0.007455,0.001065,97488.03,31.82,0.017745518
10.978061,0.067557,-0.229824,-0.258552,-9.817794,-9.823887,0,-0.00639,0.005325,97479.76,31.81,0.000734518
11.045046,0.066985,-0.241794,-0.244188,-9.834552,-9.840554,-0.001065,-0.00426,0.00426,97488.03,31.82,-0.015932482
11.11195,0.066903,-0.22743,-0.246582,-9.832158,-9.837879,0.003195,-0.005325,0.00426,97488.03,31.82,-0.013257482
11.179193,0.067244,-0.220248,-0.248976,-9.796248,-9.801886,0.001065,-0.00639,0.00213,97479.76,31.81,0.022735518
11.246336,0.067142,-0.205884,-0.246582,-9.817794,-9.823048,0.001065,-0.005325,0.00639,97483.9,31.81,0.001573518
11.31306,0.066724,-0.213066,-0.248976,-9.824976,-9.830439,0.003195,-0.005325,0.00426,97479.76,31.82,-0.005817482
11.380072,0.067012,-0.22743,-0.256158,-9.824976,-9.830946,0,-0.00213,0.005325,97488.03,31.82,-0.006324482
11.447449,0.067377,-0.205884,-0.244188,-9.80343,-9.808632,0.001065,-0.00426,0.003195,97483.9,31.81,0.015989518
11.514319,0.06687,-0.217854,-0.244188,-9.832158,-9.837602,0.00213,-0.005325,0.003195,97479.76,31.82,-0.012980482
11.581537,0.067218,-0.213066,-0.280098,-9.82737,-9.833669,0.003195,-0.005325,0,97475.63,31.82,-0.009047482
11.649049,0.067512,-0.196308,-0.225036,-9.808218,-9.812763,0.00213,-0.00426,0.001065,97479.76,31.81,0.011858518
11.716144,0.067095,-0.213066,-0.246582,-9.810612,-9.816023,0.00426,-0.00639,0.003195,97479.76,31.82,0.008598518
11.783016,0.066872,-0.222642,-0.25137,-9.810612,-9.816357,0,-0.005325,0.003195,97483.9,31.81,0.008264518
11.849998,0.066982,-0.213066,-0.234612,-9.822582,-9.827693,-0.00213,-0.005325,0.003195,97479.76,31.81,-0.003071482
11.916938,0.06694,-0.213066,-0.241794,-9.836946,-9.842224,0,-0.00426,0.005325,97488.03,31.81,-0.017602482
11.983821,0.066883,-0.21546,-0.280098,-9.856098,-9.862431,0.001065,-0.00426,0.00213,97479.76,31.81,-0.037809482
12.051173,0.067352,-0.19152,-0.246582,-9.813006,-9.817972,0,-0.00426,0.003195,97488.03,31.81,0.006649518
12.118306,0.067133,-0.213066,-0.260946,-9.80343,-9.809217,0.00426,-0.005325,0.00426,97488.03,31.81,0.015404518
12.185013,0.066707,-0.222642,-0.237006,-9.832158,-9.837534,0.00213,-0.00426,0.005325,97488.03,31.81,-0.012912482
12.252051,0.067038,-0.232218,-0.232218,-9.822582,-9.82807,-0.001065,-0.00426,0.00426,97479.76,31.81,-0.003448482
12.318943,0.066892,-0.232218,-0.265734,-9.824976,-9.831312,0.003195,-0.00426,0.00426,97483.9,31.82,-0.006690482
12.390365,0.071422,-0.21546,-0.280098,-9.805824,-9.812189,0,-0.00639,0.003195,97479.76,31.82,0.012432518
12.459592,0.069227,-0.205884,-0.256158,-9.834552,-9.840042,0.001065,-0.00852,0.00639,97483.9,31.81,-0.015420482
12.531018,0.071426,-0.244188,-0.229824,-9.80343,-9.809163,0.001065,-0.003195,0,97475.63,31.81,0.015458518
12.598377,0.067359,-0.198702,-0.277704,-9.848916,-9.854834,0,-0.00426,0.00426,97483.9,31.81,-0.030212482
12.666364,0.067987,-0.234612,-0.237006,-9.82737,-9.833027,0.001065,-0.00639,0.003195,97475.63,31.81,-0.008405482
12.733528,0.067164,-0.225036,-0.241794,-9.820188,-9.825742,0.00213,-0.005325,0.00213,97479.76,31.81,-0.001120482
12.800518,0.066989,-0.232218,-0.25137,-9.848916,-9.85486,0.001065,-0.00426,0.003195,97492.16,31.81,-0.030238482
12.867533,0.067015,-0.20349,-0.213066,-9.844128,-9.848536,0.00213,-0.003195,0.00426,97488.03,31.81,-0.023914482
12.934374,0.066841,-0.21546,-0.260946,-9.824976,-9.830802,0.00213,-0.00639,0.003195,97475.63,31.82,-0.006180482
13.001667,0.067293,-0.210672,-0.241794,-9.832158,-9.837387,0.00213,-0.005325,0.00426,97475.63,31.82,-0.012765482
13.06898,0.067313,-0.22743,-0.222642,-9.813006,-9.818166,0.00213,-0.005325,0.003195,97488.03,31.81,0.006455518
13.136051,0.067071,-0.193914,-0.26334,-9.817794,-9.823239,0.001065,-0.00426,0.003195,97479.76,31.81,0.001382518
13.203617,0.067567,-0.217854,-0.280098,-9.805824,-9.812242,0.001065,-0.005325,0.001065,97488.03,31.81,0.012379518
13.270393,0.066776,-0.220248,-0.246582,-9.832158,-9.837715,0.001065,-0.005325,0.00213,97492.16,31.81,-0.013093482
13.337263,0.06687,-0.205884,-0.244188,-9.822582,-9.827774,0,-0.00426,0.005325,97483.9,31.81,-0.003152482
13.404185,0.066922,-0.248976,-0.260946,-9.832158,-9.838771,0.00213,-0.005325,0.007455,97483.9,31.81,-0.014149482
13.472109,0.067924,-0.205884,-0.232218,-9.829764,-9.834662,0.003195,-0.00639,0.005325,97488.03,31.81,-0.010040482
13.539637,0.067528,-0.213066,-0.22743,-9.834552,-9.839489,-0.001065,-0.00213,0.003195,97488.03,31.81,-0.014867482
13.606342,0.066705,-0.208278,-0.258552,-9.829764,-9.835369,0.00426,-0.00639,0.003195,97479.76,31.81,-0.010747482
13.672718,0.066376,-0.237006,-0.25137,-9.810612,-9.816693,0.001065,-0.00426,0.00213,97483.9,31.81,0.007928518
13.739487,0.066769,-0.205884,-0.244188,-9.817794,-9.822988,0.00213,-0.00426,0.00213,97479.76,31.81,0.001633518
13.806364,0.066876,-0.225036,-0.2394,-9.805824,-9.811327,0.001065,-0.00426,0.00426,97488.03,31.81,0.013294518
13.873224,0.066861,-0.210672,-0.22743,-9.822582,-9.827473,0.001065,-0.00426,0.001065,97483.9,31.81,-0.002851482
13.939892,0.066668,-0.21546,-0.234612,-9.810612,-9.815782,0.003195,-0.00426,0.003195,97496.3,31.81,0.008839518
14.006869,0.066977,-0.222642,-0.244188,-9.824976,-9.830532,0.001065,-0.00639,0.00213,97488.03,31.81,-0.005910482
14.075023,0.068154,-0.22743,-0.246582,-9.82737,-9.833094,-0.00213,-0.00426,0.003195,97475.63,31.81,-0.008472482
14.143425,0.068402,-0.237006,-0.2394,-9.834552,-9.84032,0.001065,-0.003195,0.005325,97488.03,31.81,-0.015698482
14.21401,0.070585,-0.205884,-0.25137,-9.813006,-9.818384,0.001065,-0.00426,0.00426,97483.9,31.81,0.006237518
14.287632,0.073623,-0.208278,-0.26334,-9.817794,-9.823533,0.003195,-0.00639,0.00426,97483.9,31.81,0.001088518
14.355094,0.067462,-0.21546,-0.272916,-9.856098,-9.86223,0.001065,-0.003195,0.003195,97483.9,31.81,-0.037608482
14.422336,0.067241,-0.213066,-0.256158,-9.813006,-9.818661,0.00213,-0.003195,0.003195,97479.76,31.81,0.005960518
14.489849,0.067514,-0.25137,-0.26334,-9.824976,-9.831718,0.001065,-0.00213,0.003195,97479.76,31.81,-0.007096482
14.559871,0.070021,-0.213066,-0.241794,-9.83934,-9.844616,-0.00213,-0.005325,0.00213,97483.9,31.81,-0.019994482
14.630155,0.070284,-0.21546,-0.229824,-9.824976,-9.830025,0.001065,-0.003195,0.00426,97492.16,31.81,-0.005403482
14.702189,0.072034,-0.241794,-0.265734,-9.834552,-9.841112,0.001065,-0.00426,0.00213,97479.76,31.81,-0.016490482
14.768978,0.066789,-0.220248,-0.22743,-9.8154,-9.820505,0.003195,-0.007455,0.003195,97479.76,31.81,0.004116518
14.83614,0.067162,-0.229824,-0.260946,-9.805824,-9.811987,0.001065,-0.00426,0.00426,97479.76,31.81,0.012634518
14.903268,0.067128,-0.22743,-0.225036,-9.801036,-9.806257,0.00213,-0.00639,0.003195,97479.76,31.81,0.018364518
14.970347,0.067079,-0.217854,-0.256158,-9.83934,-9.845085,0.00213,-0.005325,0.00426,97492.16,31.81,-0.020463482
15.037764,0.067417,-0.225036,-0.25137,-9.810612,-9.816412,0.003195,-0.005325,0.003195,97483.9,31.81,0.008209518
15.104738,0.066975,-0.232218,-0.241794,-9.848916,-9.85462,0,-0.00213,0.005325,97496.3,31.81,-0.029998482
15.17197,0.067232,-0.222642,-0.225036,-9.813006,-9.818111,0.001065,-0.005325,0.00426,97488.03,31.8,0.006510518
15.239572,0.067602,-0.21546,-0.280098,-9.813006,-9.819367,0.00213,-0.003195,0.00213,97488.03,31.81,0.005254518
15.306285,0.066713,-0.225036,-0.22743,-9.813006,-9.81822,0.001065,-0.003195,0.00426,97479.76,31.81,0.006401518
15.37312,0.066835,-0.21546,-0.220248,-9.836946,-9.84177,0.001065,-0.003195,0.00426,97483.9,31.81,-0.017148482
15.439818,0.066698,-0.220248,-0.272916,-9.822582,-9.828841,0.00213,-0.00426,0.003195,97483.9,31.81,-0.004219482
15.512421,0.072603,-0.208278,-0.26334,-9.817794,-9.823533,0.003195,-0.005325,0.003195,97488.03,31.81,0.001088518
15.581836,0.069415,-0.225036,-0.284886,-9.85131,-9.857997,0.00213,-0.001065,0.00426,97492.16,31.81,-0.033375482
15.652264,0.070428,-0.241794,-0.256158,-9.817794,-9.824111,0.00213,-0.00426,0.001065,97488.03,31.81,0.000510518
15.719827,0.067563,-0.220248,-0.256158,-9.829764,-9.835567,-0.001065,-0.00213,0.003195,97492.16,31.81,-0.010945482
15.787417,0.06759,-0.198702,-0.241794,-9.829764,-9.834745,0.001065,-0.00639,0.00213,97483.9,31.81,-0.010123482
15.85433,0.066913,-0.225036,-0.26334,-9.813006,-9.819118,0.00213,-0.00426,0.005325,97488.03,31.81,0.005503518
15.922044,0.067714,-0.205884,-0.256158,-9.832158,-9.837649,0,-0.00426,0.00213,97483.9,31.8,-0.013027482
15.988716,0.066672,-0.232218,-0.232218,-9.846522,-9.851997,0.003195,-0.00426,0.00213,97479.76,31.81,-0.027375482
16.055449,0.066732,-0.196308,-0.258552,-9.83934,-9.844694,0.003195,-0.00639,0.00426,97492.16,31.81,-0.020072482
16.122293,0.066845,-0.2394,-0.258552,-9.820188,-9.826508,0.001065,-0.00426,0.003195,97492.16,31.81,-0.001886482
16.18982,0.067526,-0.20349,-0.220248,-9.832158,-9.83673,0.00213,-0.005325,0.00639,97479.76,31.81,-0.012108482
16.256936,0.067117,-0.20349,-0.253764,-9.8154,-9.820788,0.003195,-0.005325,0.003195,97475.63,31.81,0.003833518
16.32369,0.066753,-0.205884,-0.272916,-9.822582,-9.828529,0.00213,-0.003195,0.00213,97488.03,31.81,-0.003907482
16.390296,0.066606,-0.20349,-0.21546,-9.834552,-9.839016,0.00213,-0.003195,0.00213,97483.9,31.8,-0.014394482
16.457551,0.067255,-0.193914,-0.234612,-9.848916,-9.853618,0.00426,-0.007455,0.00426,97488.03,31.8,-0.028996482
16.525696,0.068145,-0.210672,-0.26334,-9.822582,-9.82837,0.00213,-0.005325,0.003195,97479.76,31.81,-0.003748482
16.593053,0.067357,-0.25137,-0.248976,-9.844128,-9.850484,-0.001065,-0.00213,0.00213,97492.16,31.8,-0.025862482
16.662985,0.069932,-0.198702,-0.2394,-9.836946,-9.841865,-0.001065,-0.00213,0.00426,97488.03,31.8,-0.017243482
16.733347,0.070362,-0.205884,-0.229824,-9.844128,-9.848963,0.003195,-0.005325,0.00213,97488.03,31.81,-0.024341482
16.803858,0.070511,-0.189126,-0.27531,-9.8154,-9.821081,0.001065,-0.00426,0.00426,97492.16,31.8,0.003540518
16.870818,0.06696,-0.234612,-0.25137,-9.834552,-9.840561,0.00213,-0.00426,0.003195,97479.76,31.81,-0.015939482
16.942948,0.07213,-0.2394,-0.256158,-9.83934,-9.845585,0.00213,-0.007455,0.003195,97488.03,31.8,-0.020963482
17.013627,0.070679,-0.213066,-0.253764,-9.8154,-9.820991,0.003195,-0.00426,0.00426,97488.03,31.8,0.003630518
17.084345,0.070718,-0.20349,-0.258552,-9.813006,-9.81852,0.001065,-0.005325,0.00426,97483.9,31.81,0.006101518
17.151699,0.067354,-0.22743,-0.244188,-9.798642,-9.804322,0.001065,-0.007455,0.003195,97488.03,31.8,0.020299518
17.218471,0.066772,-0.217854,-0.256158,-9.82737,-9.833121,0,-0.003195,0.00213,97479.76,31.8,-0.008499482
17.285431,0.066961,-0.234612,-0.225036,-9.8154,-9.820782,0.003195,-0.007455,0.003195,97479.76,31.81,0.003839518
17.352666,0.067234,-0.222642,-0.26334,-9.798642,-9.804708,0.003195,-0.005325,0.005325,97496.3,31.8,0.019913518
17.4202,0.067534,-0.201096,-0.241794,-9.8154,-9.820437,0.003195,-0.003195,0.005325,97483.9,31.81,0.004184518
17.48731,0.067111,-0.201096,-0.241794,-9.829764,-9.834794,0.00213,-0.007455,0.00426,97496.3,31.81,-0.010172482
17.554332,0.067022,-0.205884,-0.253764,-9.824976,-9.830409,-0.001065,-0.00852,0.005325,97488.03,31.81,-0.005787482
17.621628,0.067296,-0.213066,-0.25137,-9.801036,-9.806574,0,-0.003195,0.001065,97488.03,31.8,0.018047518
17.689052,0.067424,-0.184338,-0.253764,-9.829764,-9.834767,0.003195,-0.007455,0.00426,97483.9,31.81,-0.010145482
17.75597,0.066918,-0.25137,-0.280098,-9.810612,-9.817828,0.00426,-0.00426,0.00213,97492.16,31.81,0.006793518
17.822914,0.066944,-0.20349,-0.21546,-9.82737,-9.831838,0.001065,-0.00426,0,97483.9,31.81,-0.007216482
17.890307,0.067393,-0.210672,-0.237006,-9.805824,-9.81095,0.00426,-0.005325,0.005325,97488.03,31.8,0.013671518
17.957156,0.066849,-0.21546,-0.280098,-9.836946,-9.843291,0.00426,-0.00852,0.00639,97483.9,31.8,-0.018669482
18.027545,0.070389,-0.220248,-0.234612,-9.824976,-9.830244,-0.003195,-0.005325,0.00639,97488.03,31.81,-0.005622482
18.097384,0.069839,-0.205884,-0.229824,-9.817794,-9.822642,-0.001065,-0.00426,0.003195,97492.16,31.8,0.001979518
18.168479,0.071094,-0.208278,-0.277704,-9.813006,-9.819144,0,-0.00426,0.003195,97483.9,31.8,0.005477518
18.236014,0.067535,-0.208278,-0.2394,-9.813006,-9.818135,0.001065,-0.00639,0.003195,97492.16,31.8,0.006486518
18.302342,0.066328,-0.21546,-0.241794,-9.836946,-9.842276,0.00213,-0.00426,0.00426,97479.76,31.81,-0.017654482
18.370043,0.067701,-0.21546,-0.237006,-9.810612,-9.815839,0.001065,-0.00639,0.00213,97483.9,31.8,0.008782518
18.437581,0.067538,-0.213066,-0.22743,-9.813006,-9.817953,0.00213,-0.00426,0.00426,97479.76,31.8,0.006668518
18.50507,0.067489,-0.217854,-0.237006,-9.822582,-9.827856,0.00426,-0.007455,0.00639,97492.16,31.8,-0.003234482
18.572213,0.067142,-0.232218,-0.229824,-9.822582,-9.828014,0.005325,-0.005325,0.00213,97483.9,31.8,-0.003392482
18.639757,0.067544,-0.229824,-0.22743,-9.83934,-9.844651,0.001065,-0.00639,0.001065,97479.76,31.8,-0.020029482
18.706287,0.06653,-0.205884,-0.229824,-9.822582,-9.827427,0.001065,-0.003195,0.00426,97488.03,31.8,-0.002805482
18.772917,0.06663,-0.201096,-0.270522,-9.844128,-9.849897,0,-0.00639,0.005325,97488.03,31.81,-0.025275482
18.839774,0.066857,-0.237006,-0.277704,-9.786672,-9.793479,0.001065,-0.001065,0.00213,97496.3,31.8,0.031142518
18.907232,0.067458,-0.213066,-0.198702,-9.817794,-9.822116,0,-0.00426,0.00426,97492.16,31.81,0.002505518
18.974369,0.067137,-0.205884,-0.25137,-9.85131,-9.856667,0,-0.00639,0.00213,97488.03,31.81,-0.032045482
19.041242,0.066873,-0.237006,-0.241794,-9.829764,-9.835593,0.001065,-0.003195,0.00426,97488.03,31.79,-0.010971482
19.108289,0.067048,-0.2394,-0.246582,-9.820188,-9.8262,-0.001065,-0.003195,0.003195,97488.03,31.8,-0.001578482
19.175631,0.067341,-0.21546,-0.272916,-9.824976,-9.831127,0,-0.005325,0.003195,97488.03,31.8,-0.006505482
19.242341,0.06671,-0.241794,-0.282492,-9.824976,-9.83201,0,-0.00639,0.00213,97488.03,31.8,-0.007388482
19.310016,0.067675,-0.189126,-0.253764,-9.817794,-9.822894,0.00213,-0.00213,0.005325,97488.03,31.8,0.001727518
19.376928,0.066912,-0.205884,-0.2394,-9.817794,-9.82287,0.003195,-0.003195,0.00213,97492.16,31.8,0.001751518
19.443895,0.066967,-0.237006,-0.244188,-9.829764,-9.835652,0,-0.003195,0.00213,97483.9,31.8,-0.011030482
19.510867,0.066971,-0.234612,-0.246582,-9.820188,-9.826085,0,-0.00426,0.00426,97492.16,31.8,-0.001463482
19.581796,0.07093,-0.213066,-0.244188,-9.824976,-9.830319,0.00213,-0.00213,0.005325,97492.16,31.8,-0.005697482
19.652705,0.070908,-0.20349,-0.246582,-9.83934,-9.844533,0.00213,-0.005325,0.00213,97483.9,31.8,-0.019911482
19.722984,0.07028,-0.205884,-0.248976,-9.834552,-9.839857,0.00213,-0.003195,0.005325,97479.76,31.8,-0.015235482
19.790105,0.06712,-0.217854,-0.268128,-9.841734,-9.847796,0.001065,-0.005325,0.00426,97488.03,31.8,-0.023174482
19.85739,0.067285,-0.189126,-0.27531,-9.820188,-9.825867,0.00213,-0.00213,0.001065,97488.03,31.81,-0.001245482
19.92479,0.0674,-0.234612,-0.270522,-9.817794,-9.824322,0,-0.00213,0.00213,97488.03,31.8,0.000299518
19.99199,0.0672,-0.193914,-0.2394,-9.810612,-9.815448,0.001065,-0.005325,0.00213,97483.9,31.8,0.009173518
20.059214,0.067223,-0.248976,-0.248976,-9.836946,-9.843246,0.00213,-0.00426,0.003195,97488.03,31.79,-0.018624482
20.12627,0.067057,-0.205884,-0.248976,-9.8154,-9.820716,0.003195,-0.00639,0.00426,97492.16,31.8,0.003905518
20.193607,0.067337,-0.186732,-0.234612,-9.832158,-9.836729,0.00213,-0.005325,0.00426,97488.03,31.8,-0.012107482
20.260753,0.067146,-0.220248,-0.268128,-9.836946,-9.843064,0.00213,-0.005325,0.00213,97496.3,31.8,-0.018442482
20.327791,0.067038,-0.217854,-0.246582,-9.813006,-9.818521,0.001065,-0.00426,0.003195,97496.3,31.81,0.006100518
20.39493,0.06714,-0.220248,-0.241794,-9.80343,-9.808884,0,-0.005325,0.003195,97496.3,31.8,0.015737518
20.462338,0.067407,-0.225036,-0.27531,-9.820188,-9.826623,0.00213,-0.00639,0.003195,97488.03,31.8,-0.002001482
20.529713,0.067376,-0.237006,-0.244188,-9.824976,-9.830867,0.001065,-0.00213,0.00426,97488.03,31.79,-0.006245482
20.59669,0.066977,-0.248976,-0.256158,-9.846522,-9.853,0.00213,-0.007455,0.00213,97488.03,31.8,-0.028378482
20.664074,0.067385,-0.19152,-0.232218,-9.822582,-9.827193,0.00213,-0.005325,0.001065,97483.9,31.79,-0.002571482
20.731088,0.067013,-0.225036,-0.277704,-9.832158,-9.838653,0.003195,-0.00426,0.00426,97488.03,31.79,-0.014031482
20.801732,0.070645,-0.237006,-0.241794,-9.820188,-9.826023,0.003195,-0.00852,0.005325,97488.03,31.79,-0.001401482
20.871625,0.069893,-0.196308,-0.25137,-9.834552,-9.839722,0.00213,-0.00639,0.00639,97488.03,31.8,-0.015100482
20.942913,0.071288,-0.196308,-0.2394,-9.822582,-9.82746,0.00213,-0.00426,0.003195,97479.76,31.8,-0.002838482
21.009155,0.066242,-0.237006,-0.246582,-9.8154,-9.821357,0.001065,-0.00426,0.00426,97496.3,31.8,0.003264518
21.077115,0.06796,-0.253764,-0.246582,-9.824976,-9.831345,0,-0.005325,0.00426,97483.9,31.79,-0.006723482
21.143933,0.066818,-0.217854,-0.282492,-9.817794,-9.824273,0.005325,-0.00426,0.00426,97483.9,31.8,0.000348518
21.211028,0.067095,-0.222642,-0.248976,-9.829764,-9.835437,-0.003195,-0.005325,0.003195,97496.3,31.8,-0.010815482
21.27836,0.067332,-0.210672,-0.234612,-9.832158,-9.837213,0.005325,-0.00639,0.003195,97492.16,31.79,-0.012591482
21.345303,0.066943,-0.237006,-0.246582,-9.805824,-9.811787,0.00213,-0.00852,0.001065,97483.9,31.8,0.012834518
21.41242,0.067117,-0.196308,-0.2394,-9.820188,-9.825067,0.001065,-0.005325,0.00213,97492.16,31.8,-0.000445482
21.47929,0.06687,-0.225036,-0.265734,-9.822582,-9.828752,-0.001065,-0.00213,0.005325,97496.3,31.8,-0.004130482
21.546292,0.067002,-0.208278,-0.25137,-9.848916,-9.854325,0.003195,-0.005325,0.00213,97488.03,31.8,-0.029703482
21.613331,0.067038,-0.21546,-0.25137,-9.8154,-9.820982,0.00213,-0.003195,0,97496.3,31.79,0.003639518
21.680524,0.067193,-0.237006,-0.229824,-9.82737,-9.832914,0.00213,-0.005325,0.003195,97496.3,31.8,-0.008292482
21.747309,0.066786,-0.210672,-0.268128,-9.836946,-9.842854,0.001065,-0.003195,0.00426,97492.16,31.79,-0.018232482
21.81434,0.067031,-0.232218,-0.234612,-9.786672,-9.792238,0.001065,-0.005325,0.003195,97488.03,31.8,0.032383518
21.881249,0.066908,-0.20349,-0.253764,-9.8154,-9.820788,-0.003195,-0.005325,0.001065,97488.03,31.79,0.003833518
21.948891,0.067642,-0.213066,-0.246582,-9.841734,-9.847128,0.003195,-0.00639,0.00213,97488.03,31.8,-0.022506482
22.016133,0.067242,-0.220248,-0.292068,-9.829764,-9.836568,0.00213,-0.00639,0.00213,97483.9,31.8,-0.011946482
22.083441,0.067308,-0.229824,-0.213066,-9.822582,-9.82758,0.001065,-0.005325,0.005325,97488.03,31.79,-0.002958482
22.150466,0.067025,-0.217854,-0.253764,-9.832158,-9.837845,0.00213,-0.00639,0.005325,97483.9,31.79,-0.013223482
22.217763,0.067297,-0.213066,-0.244188,-9.829764,-9.835105,0.003195,-0.00426,0.003195,97492.16,31.8,-0.010483482
22.288434,0.070671,-0.208278,-0.270522,-9.810612,-9.816551,-0.003195,-0.003195,0.00213,97479.76,31.78,0.008070518
22.363596,0.075162,-0.205884,-0.244188,-9.79146,-9.796668,0.00213,-0.003195,0.003195,97496.3,31.78,0.027953518
22.434587,0.070991,-0.222642,-0.256158,-9.841734,-9.847584,0.003195,-0.005325,0.00426,97475.63,31.79,-0.022962482
22.504904,0.070317,-0.222642,-0.248976,-9.80343,-9.809118,0.003195,-0.00426,0.00426,97488.03,31.79,0.015503518
22.575514,0.07061,-0.21546,-0.272916,-9.824976,-9.831127,0.003195,-0.005325,0.003195,97496.3,31.79,-0.006505482
22.642321,0.066806,-0.193914,-0.225036,-9.808218,-9.812715,-0.003195,-0.00639,0.00426,97496.3,31.79,0.011906518
22.710354,0.068033,-0.244188,-0.220248,-9.83934,-9.844834,0.001065,-0.00426,0.00426,97492.16,31.79,-0.020212482
22.77761,0.067256,-0.220248,-0.260946,-9.832158,-9.838086,0.003195,-0.005325,0.001065,97488.03,31.79,-0.013464482
22.844125,0.066515,-0.225036,-0.282492,-9.822582,-9.82922,0.00213,-0.003195,0.003195,97496.3,31.78,-0.004598482
22.911213,0.067088,-0.205884,-0.246582,-9.829764,-9.835011,0.001065,-0.001065,0.00426,97492.16,31.8,-0.010389482
22.978662,0.067449,-0.21546,-0.248976,-9.817794,-9.823314,0.003195,-0.003195,0.001065,97496.3,31.79,0.001307518
23.045401,0.066739,-0.2394,-0.234612,-9.798642,-9.804374,0.00213,-0.00639,0.00426,97479.76,31.79,0.020247518
23.112827,0.067426,-0.189126,-0.265734,-9.813006,-9.818425,0.001065,-0.00426,0.003195,97483.9,31.8,0.006196518
23.179394,0.066567,-0.22743,-0.253764,-9.810612,-9.816528,0,-0.00426,0.003195,97492.16,31.79,0.008093518
23.24699,0.067596,-0.229824,-0.270522,-9.805824,-9.812247,0,-0.003195,0.00426,97496.3,31.8,0.012374518
23.314036,0.067046,-0.234612,-0.237006,-9.805824,-9.811493,0.003195,-0.00426,0.003195,97496.3,31.79,0.013128518
23.380949,0.066912,-0.220248,-0.229824,-9.822582,-9.827739,0.00213,-0.00639,0.003195,97496.3,31.8,-0.003117482
23.448193,0.067244,-0.213066,-0.260946,-9.796248,-9.802039,0.001065,-0.005325,0.00426,97488.03,31.79,0.022582518
23.514966,0.066774,-0.232218,-0.25137,-9.829764,-9.835719,0.00213,-0.007455,0.003195,97488.03,31.79,-0.011097482
23.582099,0.067133,-0.220248,-0.237006,-9.822582,-9.827909,0.00213,-0.00639,0.005325,97483.9,31.79,-0.003287482
23.649268,0.06717,-0.258552,-0.25137,-9.796248,-9.802883,0.00426,-0.005325,0.003195,97488.03,31.79,0.021738518
23.716463,0.067194,-0.208278,-0.270522,-9.810612,-9.816551,0.003195,-0.005325,0.00213,97496.3,31.79,0.008070518
23.787434,0.070971,-0.213066,-0.256158,-9.82737,-9.833017,0,-0.005325,0.003195,97488.03,31.79,-0.008395482
23.858028,0.070594,-0.237006,-0.21546,-9.82737,-9.832588,0.003195,-0.003195,0.001065,97492.16,31.79,-0.007966482
23.929175,0.071147,-0.234612,-0.21546,-9.8154,-9.820567,0.003195,-0.00426,0.001065,97496.3,31.79,0.004054518
23.99685,0.067675,-0.201096,-0.253764,-9.8154,-9.820739,-0.001065,-0.003195,0.001065,97500.43,31.78,0.003882518
24.064158,0.067308,-0.246582,-0.260946,-9.824976,-9.831533,0.00426,-0.007455,0.003195,97496.3,31.79,-0.006911482
24.130882,0.066725,-0.213066,-0.25137,-9.82737,-9.832893,0.001065,-0.00426,0.00213,97488.03,31.78,-0.008271482
24.198158,0.067276,-0.205884,-0.234612,-9.829764,-9.834719,0.001065,-0.00426,0.003195,97488.03,31.78,-0.010097482
24.265055,0.066897,-0.184338,-0.265734,-9.822582,-9.827905,0.00213,-0.00639,0.005325,97492.16,31.79,-0.003283482
24.331845,0.06679,-0.2394,-0.244188,-9.820188,-9.82614,-0.001065,-0.00426,0.00213,97488.03,31.78,-0.001518482
24.400029,0.068183,-0.248976,-0.244188,-9.817794,-9.823986,0.001065,-0.005325,0.00213,97492.16,31.79,0.000635518
24.467155,0.067126,-0.220248,-0.25137,-9.805824,-9.811518,0.00213,-0.005325,0.00426,97496.3,31.78,0.013103518
24.537401,0.070246,-0.201096,-0.253764,-9.824976,-9.83031,0.00213,-0.005325,0.003195,97488.03,31.79,-0.005688482
24.607769,0.070368,-0.22743,-0.265734,-9.813006,-9.819238,0.00213,-0.00426,0.003195,97492.16,31.79,0.005383518
24.677849,0.070079,-0.208278,-0.25137,-9.836946,-9.842361,0.00213,-0.00426,0.00213,97492.16,31.79,-0.017739482
24.745018,0.067169,-0.210672,-0.25137,-9.82737,-9.832841,0.00213,-0.00426,0.00213,97492.16,31.78,-0.008219482
24.812211,0.067194,-0.201096,-0.244188,-9.841734,-9.846817,0,-0.003195,0.003195,97492.16,31.79,-0.022195482
24.879214,0.067003,-0.208278,-0.265734,-9.841734,-9.847524,0.00426,-0.00639,0.00213,97488.03,31.79,-0.022902482
24.946405,0.067191,-0.222642,-0.277704,-9.80343,-9.809889,0.001065,-0.003195,0.005325,97496.3,31.78,0.014732518
25.013594,0.067188,-0.244188,-0.213066,-9.810612,-9.815963,-0.001065,-0.00213,0.003195,97488.03,31.79,0.008658518
25.08036,0.066766,-0.196308,-0.27531,-9.82737,-9.833185,0.00213,-0.005325,0.00213,97488.03,31.79,-0.008563482
25.147747,0.067387,-0.196308,-0.258552,-9.829764,-9.835123,0.003195,-0.00426,0.00213,97488.03,31.79,-0.010501482
25.21481,0.067063,-0.225036,-0.225036,-9.82737,-9.832522,0.001065,-0.003195,0.00426,97488.03,31.78,-0.007900482
25.282114,0.067304,-0.232218,-0.237006,-9.85131,-9.856896,0.003195,-0.007455,0.00426,97488.03,31.78,-0.032274482
25.348978,0.066865,-0.22743,-0.26334,-9.829764,-9.835921,0.005325,-0.005325,0.005325,97496.3,31.79,-0.011299482
25.416778,0.0678,-0.241794,-0.26334,-9.83934,-9.845833,0,-0.00639,0.001065,97496.3,31.78,-0.021211482
25.483815,0.067037,-0.205884,-0.237006,-9.824976,-9.829991,0.001065,-0.00213,0.003195,97488.03,31.79,-0.005369482
25.551194,0.067379,-0.2394,-0.246582,-9.813006,-9.819022,0.00213,-0.007455,0.005325,97488.03,31.78,0.005599518
25.618048,0.066854,-0.237006,-0.268128,-9.853704,-9.8602,0,-0.003195,0.00213,97483.9,31.78,-0.035578482
25.684873,0.066825,-0.21546,-0.258552,-9.824976,-9.830739,0.001065,-0.005325,0.00426,97496.3,31.78,-0.006117482
25.752341,0.067468,-0.225036,-0.225036,-9.824976,-9.830129,0.003195,-0.00426,0.00426,97496.3,31.79,-0.005507482
25.819634,0.067293,-0.22743,-0.237006,-9.82737,-9.832858,0.003195,-0.005325,0.00213,97488.03,31.79,-0.008236482
25.886468,0.066834,-0.205884,-0.210672,-9.832158,-9.83657,-0.001065,-0.001065,0.001065,97496.3,31.79,-0.011948482
25.953631,0.067163,-0.205884,-0.246582,-9.817794,-9.823048,0,-0.00639,0.005325,97488.03,31.79,0.001573518
26.020864,0.067233,-0.234612,-0.25137,-9.813006,-9.819028,0.00213,-0.00639,0.00426,97483.9,31.78,0.005593518
26.087974,0.06711,-0.22743,-0.237006,-9.8154,-9.820895,0.001065,-0.005325,0.00639,97496.3,31.79,0.003726518
26.154819,0.066845,-0.198702,-0.220248,-9.82737,-9.831846,0.001065,-0.00426,0.005325,97496.3,31.79,-0.007224482
26.221625,0.066806,-0.20349,-0.26334,-9.836946,-9.842574,-0.001065,-0.003195,0.00213,97488.03,31.78,-0.017952482
26.289827,0.068202,-0.2394,-0.241794,-9.813006,-9.818903,0.001065,-0.00426,0.005325,97492.16,31.78,0.005718518
26.356941,0.067114,-0.20349,-0.232218,-9.83934,-9.844183,0.001065,-0.00639,0.00213,97492.16,31.78,-0.019561482
26.426867,0.069926,-0.220248,-0.25137,-9.853704,-9.85937,0.003195,-0.005325,0.001065,97492.16,31.78,-0.034748482
26.498557,0.071689,-0.253764,-0.237006,-9.83934,-9.845465,0.00213,-0.00213,0.001065,97492.16,31.78,-0.020843482
26.568388,0.069831,-0.20349,-0.258552,-9.83934,-9.84484,0,-0.005325,0.00213,97488.03,31.78,-0.020218482
26.63572,0.067331,-0.213066,-0.253764,-9.798642,-9.804243,0,-0.003195,0.00213,97479.76,31.79,0.020378518
26.702937,0.067217,-0.220248,-0.253764,-9.805824,-9.811579,-0.001065,-0.00213,0.00213,97496.3,31.78,0.013042518
26.770241,0.067304,-0.184338,-0.2394,-9.808218,-9.812871,0.001065,-0.00639,0,97488.03,31.78,0.011750518
26.83814,0.067899,-0.196308,-0.248976,-9.817794,-9.822912,0.003195,-0.00213,0.003195,97492.16,31.78,0.001709518
26.905064,0.066924,-0.232218,-0.2394,-9.841734,-9.847384,0.00213,-0.00639,0.00426,97492.16,31.78,-0.022762482
26.971976,0.066912,-0.222642,-0.22743,-9.82737,-9.832522,0,-0.00213,0.003195,97492.16,31.78,-0.007900482
27.038353,0.066377,-0.220248,-0.232218,-9.841734,-9.846937,0.00213,-0.007455,0.005325,97488.03,31.79,-0.022315482
27.105279,0.066926,-0.210672,-0.25137,-9.805824,-9.811307,0.001065,-0.003195,0.00426,97488.03,31.78,0.013314518
27.172675,0.067396,-0.220248,-0.222642,-9.834552,-9.839537,0.001065,-0.00639,0.00213,97496.3,31.79,-0.014915482
27.239863,0.067188,-0.217854,-0.241794,-9.832158,-9.837543,0,-0.005325,0.005325,97500.43,31.78,-0.012921482
27.30654,0.066677,-0.241794,-0.25137,-9.824976,-9.831165,0.003195,-0.00639,0.00426,97496.3,31.78,-0.006543482
27.374351,0.067811,-0.2394,-0.244188,-9.813006,-9.818963,0.00213,-0.003195,0.003195,97488.03,31.79,0.005658518
27.442203,0.067852,-0.217854,-0.225036,-9.834552,-9.839538,0,-0.005325,0.003195,97488.03,31.78,-0.014916482
27.509355,0.067152,-0.189126,-0.248976,-9.853704,-9.858663,0.003195,-0.00639,0.00426,97483.9,31.78,-0.034041482
27.579532,0.070178,-0.205884,-0.237006,-9.801036,-9.806063,0.003195,-0.00426,0.003195,97492.16,31.79,0.018558518
27.649557,0.070025,-0.20349,-0.22743,-9.817794,-9.822536,-0.001065,-0.005325,0.00213,97496.3,31.79,0.002085518
27.726518,0.07696,-0.22743,-0.241794,-9.832158,-9.83776,-0.00213,-0.00426,0.00213,97492.16,31.79,-0.013138482
27.799037,0.072519,-0.229824,-0.258552,-9.8154,-9.821494,0.00213,-0.007455,0,97488.03,31.78,0.003127518
27.870475,0.071439,-0.241794,-0.232218,-9.829764,-9.835479,0.001065,-0.00639,0.00426,97492.16,31.79,-0.010857482
27.945401,0.074926,-0.174762,-0.248976,-9.817794,-9.822505,0.005325,-0.00639,0.00426,97496.3,31.78,0.002116518
28.015997,0.070595,-0.217854,-0.244188,-9.834552,-9.839995,0.001065,-0.00426,0.00213,97488.03,31.78,-0.015373482
28.086214,0.070217,-0.208278,-0.2394,-9.832158,-9.837277,0.003195,-0.00213,0.00426,97496.3,31.78,-0.012655482
28.156618,0.070403,-0.20349,-0.244188,-9.805824,-9.810974,0.003195,-0.00426,0.003195,97483.9,31.77,0.013647518
28.223589,0.066972,-0.217854,-0.258552,-9.82737,-9.833184,0.003195,-0.00639,0.00213,97496.3,31.78,-0.008562482
28.290266,0.066677,-0.229824,-0.229824,-9.82737,-9.832743,0.001065,-0.00213,0.003195,97496.3,31.78,-0.008121482
28.357608,0.067342,-0.220248,-0.248976,-9.832158,-9.837776,0.001065,-0.005325,0.003195,97500.43,31.78,-0.013154482
28.4249,0.067292,-0.205884,-0.265734,-9.8154,-9.821155,0.00213,-0.005325,0.00426,97488.03,31.78,0.003466518
28.492086,0.067186,-0.222642,-0.26334,-9.798642,-9.804708,0,-0.00426,0.00426,97496.3,31.78,0.019913518
28.558831,0.066745,-0.193914,-0.234612,-9.82737,-9.832083,-0.001065,-0.005325,0.003195,97488.03,31.78,-0.007461482
28.626103,0.067271,-0.229824,-0.265734,-9.832158,-9.838433,0.003195,-0.00426,0.001065,97496.3,31.77,-0.013811482
28.693185,0.067082,-0.220248,-0.248976,-9.810612,-9.816242,0,-0.00426,0.003195,97492.16,31.79,0.008379518
28.760036,0.066851,-0.205884,-0.234612,-9.834552,-9.839504,0.001065,-0.00426,0.003195,97488.03,31.78,-0.014882482
28.827948,0.067912,-0.20349,-0.246582,-9.822582,-9.827783,0.003195,-0.007455,0.001065,97492.16,31.78,-0.003161482
28.895147,0.067199,-0.225036,-0.244188,-9.822582,-9.828193,0.001065,-0.00426,0.00426,97488.03,31.78,-0.003571482
28.962663,0.067516,-0.234612,-0.25137,-9.8154,-9.821421,0.001065,-0.007455,0.00639,97496.3,31.78,0.003200518
29.030334,0.067671,-0.21546,-0.244188,-9.8154,-9.820801,0,-0.00639,0.001065,97500.43,31.78,0.003820518
29.101114,0.07078,-0.237006,-0.253764,-9.80343,-9.809577,0.003195,-0.00426,0.003195,97496.3,31.77,0.015044518
29.17115,0.070036,-0.246582,-0.272916,-9.832158,-9.839035,-0.001065,-0.00639,0.00852,97483.9,31.78,-0.014413482
29.242403,0.071253,-0.217854,-0.284886,-9.846522,-9.853051,0.003195,-0.007455,0.003195,97500.43,31.78,-0.028429482
29.309146,0.066743,-0.22743,-0.256158,-9.813006,-9.818983,0.003195,-0.00426,0.003195,97496.3,31.79,0.005638518
29.376349,0.067203,-0.193914,-0.220248,-9.836946,-9.841322,0.001065,-0.00852,0.00426,97496.3,31.78,-0.016700482
29.443282,0.066933,-0.220248,-0.237006,-9.820188,-9.825516,0.00426,-0.00639,0.00426,97496.3,31.78,-0.000894482
29.510334,0.067052,-0.196308,-0.26334,-9.824976,-9.830465,0.003195,-0.005325,0.00426,97488.03,31.78,-0.005843482
29.578259,0.067924,-0.205884,-0.26334,-9.820188,-9.825875,0.001065,-0.005325,0.00426,97488.03,31.77,-0.001253482
29.644936,0.066677,-0.234612,-0.22743,-9.817794,-9.82323,0.00213,-0.005325,0.003195,97496.3,31.78,0.001391518
29.711821,0.066885,-0.22743,-0.25137,-9.820188,-9.826037,0.00426,-0.00639,0.00213,97492.16,31.77,-0.001415482
29.77833,0.06651,-0.21546,-0.234612,-9.810612,-9.815782,0.001065,-0.00213,0.00426,97488.03,31.77,0.008839518
29.845638,0.067307,-0.196308,-0.222642,-9.817794,-9.82228,0.00213,-0.005325,0.003195,97488.03,31.77,0.002341518
29.912691,0.067054,-0.20349,-0.22743,-9.841734,-9.846464,0.00426,-0.00852,0.00426,97496.3,31.78,-0.021842482
29.980067,0.067376,-0.208278,-0.241794,-9.836946,-9.842121,0,-0.005325,0.00426,97496.3,31.78,-0.017499482
30.047397,0.06733,-0.198702,-0.210672,-9.832158,-9.836422,0.00213,-0.003195,0.00426,97500.43,31.77,-0.011800482
30.114322,0.066925,-0.20349,-0.27531,-9.834552,-9.840509,0.00213,-0.00639,0.00213,97496.3,31.77,-0.015887482
30.181077,0.066755,-0.225036,-0.272916,-9.808218,-9.814594,0.001065,-0.003195,0.00426,97500.43,31.77,0.010027518
30.248644,0.067567,-0.205884,-0.237006,-9.836946,-9.841954,0,-0.001065,0.00213,97504.56,31.77,-0.017332482
30.31657,0.067926,-0.198702,-0.241794,-9.8154,-9.820388,0.00213,-0.00639,0.003195,97500.43,31.78,0.004233518
30.387023,0.070453,-0.229824,-0.244188,-9.817794,-9.823519,0,-0.00639,0.003195,97492.16,31.77,0.001102518
30.457487,0.070464,-0.21546,-0.248976,-9.817794,-9.823314,0.003195,-0.00639,0.00426,97492.16,31.77,0.001307518
30.527931,0.070443,-0.220248,-0.220248,-9.834552,-9.839483,0.00426,-0.01065,0.00426,97488.03,31.77,-0.014861482
30.59579,0.067859,-0.220248,-0.256158,-9.813006,-9.818819,0.003195,-0.00639,0.00426,97496.3,31.78,0.005802518
30.662451,0.066661,-0.225036,-0.232218,-9.820188,-9.825511,0,-0.00639,0.00426,97496.3,31.78,-0.000889482
30.729554,0.067103,-0.20349,-0.26334,-9.829764,-9.835396,0.001065,-0.00639,0.00426,97492.16,31.78,-0.010774482
30.796865,0.067311,-0.220248,-0.25137,-9.813006,-9.818696,0.00213,-0.005325,0.003195,97488.03,31.77,0.005925518
30.864576,0.067711,-0.213066,-0.248976,-9.808218,-9.813691,0,-0.007455,0.003195,97496.3,31.78,0.010930518
30.931522,0.066946,-0.186732,-0.256158,-9.822582,-9.827696,0.003195,-0.005325,0.005325,97500.43,31.78,-0.003074482
30.998549,0.067027,-0.222642,-0.253764,-9.824976,-9.830774,0.00213,-0.00426,0.003195,97504.56,31.77,-0.006152482
31.064963,0.066414,-0.237006,-0.234612,-9.824976,-9.830634,0.00213,-0.005325,0.00213,97496.3,31.77,-0.006012482
31.131837,0.066874,-0.196308,-0.246582,-9.817794,-9.822852,0.00213,-0.00639,0.00213,97496.3,31.77,0.001769518
31.199001,0.067165,-0.210672,-0.27531,-9.820188,-9.826305,0.00213,-0.005325,0,97504.56,31.78,-0.001683482
31.266285,0.067284,-0.222642,-0.2394,-9.813006,-9.81845,0.00213,-0.005325,0.003195,97488.03,31.77,0.006171518
31.334095,0.06781,-0.225036,-0.244188,-9.846522,-9.85212,0,-0.001065,0.003195,97492.16,31.77,-0.027498482
31.400608,0.066513,-0.222642,-0.229824,-9.822582,-9.827793,0.003195,-0.00852,0.003195,97488.03,31.77,-0.003171482
31.46755,0.066942,-0.201096,-0.248976,-9.841734,-9.846936,0.00213,-0.00639,0.00213,97488.03,31.77,-0.022314482
31.535669,0.068119,-0.196308,-0.229824,-9.805824,-9.810481,0,-0.00426,0.00426,97496.3,31.78,0.014140518
31.602593,0.066924,-0.232218,-0.237006,-9.829764,-9.835363,0.003195,-0.00426,0.005325,97483.9,31.78,-0.010741482
31.66948,0.066887,-0.205884,-0.258552,-9.832158,-9.837712,0.00213,-0.007455,0.005325,97496.3,31.77,-0.013090482
31.73665,0.06717,-0.2394,-0.244188,-9.801036,-9.807,0,-0.005325,0.005325,97496.3,31.77,0.017621518
31.80706,0.07041,-0.19152,-0.258552,-9.848916,-9.85417,0.003195,-0.00639,0.003195,97488.03,31.77,-0.029548482
31.87711,0.07005,-0.225036,-0.256158,-9.822582,-9.828498,0.00213,-0.005325,0.003195,97496.3,31.77,-0.003876482
31.949057,0.071948,-0.229824,-0.234612,-9.83934,-9.84482,-0.001065,-0.003195,0.00213,97492.16,31.77,-0.020198482
32.019509,0.070452,-0.21546,-0.248976,-9.836946,-9.842455,0.00426,-0.00426,0.001065,97492.16,31.77,-0.017833482
32.092517,0.073008,-0.205884,-0.258552,-9.836946,-9.842497,0.00213,-0.005325,0.005325,97500.43,31.77,-0.017875482
32.160681,0.068164,-0.222642,-0.232218,-9.822582,-9.827849,0,-0.00639,0.003195,97496.3,31.77,-0.003227482
32.227521,0.06684,-0.234612,-0.248976,-9.829764,-9.835715,0.001065,-0.00426,0.003195,97496.3,31.77,-0.011093482
32.29475,0.067229,-0.210672,-0.225036,-9.801036,-9.805882,0.003195,-0.00639,0.00213,97496.3,31.77,0.018739518
32.361861,0.067111,-0.210672,-0.229824,-9.822582,-9.827529,0.00213,-0.00426,0.003195,97496.3,31.77,-0.002907482
32.42965,0.067789,-0.22743,-0.25137,-9.824976,-9.830822,0.001065,-0.005325,0.00426,97504.56,31.77,-0.006200482
32.496984,0.067335,-0.208278,-0.256158,-9.805824,-9.81138,0.00213,-0.005325,0.005325,97504.56,31.77,0.013241518
32.567415,0.070431,-0.232218,-0.25137,-9.82737,-9.833327,0,-0.00426,0.00213,97496.3,31.77,-0.008705482
32.636656,0.069241,-0.217854,-0.21546,-9.813006,-9.817788,0.001065,-0.003195,0.00213,97492.16,31.76,0.006833518
32.704854,0.068198,-0.237006,-0.237006,-9.834552,-9.840262,0.00213,-0.007455,0.001065,97500.43,31.77,-0.015640482
32.776051,0.071197,-0.225036,-0.248976,-9.83934,-9.845062,0.00426,-0.005325,0.005325,97496.3,31.76,-0.020440482
32.842761,0.066709,-0.181944,-0.280098,-9.832158,-9.83783,0.003195,-0.00426,0.005325,97488.03,31.77,-0.013208482
32.910048,0.067288,-0.189126,-0.258552,-9.822582,-9.827804,0.00213,-0.00426,0.00213,97492.16,31.77,-0.003182482
32.978292,0.068244,-0.198702,-0.2394,-9.844128,-9.849043,0.001065,-0.003195,0.00213,97488.03,31.77,-0.024421482
33.044966,0.066674,-0.220248,-0.246582,-9.80343,-9.809004,0.00213,-0.00426,0.001065,97500.43,31.76,0.015617518
33.112078,0.067112,-0.213066,-0.248976,-9.820188,-9.825654,-0.001065,-0.00213,0.003195,97500.43,31.77,-0.001032482
33.178978,0.0669,-0.189126,-0.2394,-9.834552,-9.839283,0.00213,-0.005325,0.00639,97488.03,31.77,-0.014661482
33.246064,0.067086,-0.21546,-0.26334,-9.853704,-9.859577,0,-0.00426,0.00213,97504.56,31.77,-0.034955482
33.316832,0.070768,-0.213066,-0.258552,-9.822582,-9.828294,0,-0.007455,0.005325,97496.3,31.77,-0.003672482
33.387236,0.070404,-0.193914,-0.244188,-9.798642,-9.803602,0.003195,-0.00213,0.001065,97496.3,31.77,0.021019518
33.456469,0.069233,-0.213066,-0.268128,-9.824976,-9.830943,0.00426,-0.00213,0.005325,97496.3,31.77,-0.006321482
33.524979,0.06851,-0.213066,-0.225036,-9.832158,-9.837041,-0.001065,-0.003195,0.003195,97504.56,31.77,-0.012419482
33.592834,0.067856,-0.210672,-0.241794,-9.836946,-9.842172,0.003195,-0.003195,0.003195,97496.3,31.77,-0.017550482
33.660023,0.067188,-0.21546,-0.265734,-9.848916,-9.854856,0.001065,-0.005325,0.001065,97492.16,31.77,-0.030234482
33.727034,0.067011,-0.210672,-0.25137,-9.834552,-9.840019,0.00213,-0.005325,0.00426,97483.9,31.76,-0.015397482
33.794312,0.067278,-0.19152,-0.25137,-9.834552,-9.839628,0,-0.00426,0.001065,97496.3,31.77,-0.015006482
33.861214,0.066902,-0.20349,-0.234612,-9.832158,-9.837062,0.003195,-0.007455,0.005325,97488.03,31.77,-0.012440482
33.928098,0.066885,-0.217854,-0.260946,-9.832158,-9.838033,0.001065,-0.003195,0.001065,97496.3,31.76,-0.013411482
33.99557,0.067472,-0.201096,-0.256158,-9.841734,-9.847121,0,-0.00426,0.003195,97492.16,31.77,-0.022499482
34.062374,0.066804,-0.232218,-0.26334,-9.85131,-9.857565,0.003195,-0.005325,0.00213,97488.03,31.77,-0.032943482
34.129679,0.067304,-0.225036,-0.28728,-9.817794,-9.824574,0,-0.00426,0.00426,97496.3,31.77,4.75E-05
34.197247,0.067568,-0.20349,-0.220248,-9.8154,-9.819979,0.001065,-0.00426,0.003195,97496.3,31.77,0.004642518
34.264835,0.067588,-0.20349,-0.268128,-9.858492,-9.864237,0.001065,-0.00639,0.003195,97488.03,31.76,-0.039615482
34.337508,0.072673,-0.220248,-0.268128,-9.841734,-9.847849,0.00213,-0.005325,0.00426,97496.3,31.77,-0.023227482
34.409013,0.071505,-0.241794,-0.225036,-9.82737,-9.83292,0.00213,-0.00426,0.001065,97488.03,31.77,-0.008298482
34.477556,0.068543,-0.248976,-0.260946,-9.817794,-9.824417,0.00213,-0.005325,0.00426,97500.43,31.77,0.000204518
34.547185,0.06963,-0.229824,-0.258552,-9.836946,-9.843027,0.00213,-0.003195,0.003195,97492.16,31.76,-0.018405482
34.615986,0.068801,-0.213066,-0.229824,-9.8154,-9.820402,-0.001065,-0.00426,0.003195,97504.56,31.76,0.004219518
34.688654,0.072667,-0.21546,-0.260946,-9.786672,-9.792521,0.001065,-0.003195,0.00426,97492.16,31.77,0.032100518
34.756262,0.067609,-0.246582,-0.222642,-9.83934,-9.844947,0.001065,-0.007455,0.00426,97492.16,31.76,-0.020325482
34.824034,0.067771,-0.208278,-0.237006,-9.836946,-9.842005,0.003195,-0.007455,0.00213,97500.43,31.77,-0.017383482
34.890288,0.066255,-0.208278,-0.260946,-9.820188,-9.825862,0.003195,-0.00639,0.00426,97492.16,31.77,-0.001240482
34.95807,0.067782,-0.21546,-0.234612,-9.8154,-9.820567,0,-0.003195,0.00426,97496.3,31.77,0.004054518
35.025182,0.067112,-0.210672,-0.270522,-9.8154,-9.821387,0.00213,-0.00213,0.005325,97492.16,31.76,0.003234518
35.092142,0.06696,-0.210672,-0.284886,-9.860886,-9.86725,0.003195,-0.005325,0.00426,97496.3,31.76,-0.042628482
35.159058,0.066916,-0.210672,-0.225036,-9.832158,-9.836989,0.001065,-0.003195,0,97492.16,31.77,-0.012367482
35.225886,0.066828,-0.225036,-0.222642,-9.829764,-9.83486,0.00213,-0.00639,0.003195,97496.3,31.77,-0.010238482
35.293308,0.067421,-0.222642,-0.260946,-9.829764,-9.835747,0.00213,-0.005325,0.005325,97496.3,31.77,-0.011125482
35.359864,0.066556,-0.270522,-0.272916,-9.832158,-9.839664,-0.00213,-0.00426,0.00213,97504.56,31.77,-0.015042482
35.427315,0.067451,-0.241794,-0.244188,-9.834552,-9.840554,0,-0.00426,0.003195,97488.03,31.77,-0.015932482
35.494296,0.066981,-0.210672,-0.248976,-9.844128,-9.849529,0.003195,-0.005325,0.00213,97496.3,31.77,-0.024907482
35.561375,0.067079,-0.22743,-0.256158,-9.822582,-9.828553,0.00213,-0.003195,0.003195,97496.3,31.77,-0.003931482
35.628611,0.067236,-0.210672,-0.246582,-9.841734,-9.847076,0.003195,-0.005325,0.00426,97488.03,31.77,-0.022454482
35.695387,0.066776,-0.208278,-0.237006,-9.836946,-9.842005,0.00426,-0.00639,0.005325,97496.3,31.76,-0.017383482
35.762336,0.066949,-0.222642,-0.253764,-9.822582,-9.828381,-0.001065,-0.00213,0.001065,97496.3,31.76,-0.003759482
35.830459,0.068122,-0.237006,-0.244188,-9.808218,-9.814119,-0.001065,-0.00426,0.003195,97508.7,31.77,0.010502518
35.898083,0.067625,-0.222642,-0.27531,-9.824976,-9.831354,0,-0.003195,0.001065,97492.16,31.76,-0.006732482
35.96765,0.069567,-0.232218,-0.237006,-9.8154,-9.821007,0.003195,-0.007455,0.003195,97492.16,31.76,0.003614518
36.041319,0.073669,-0.234612,-0.241794,-9.824976,-9.830751,0.003195,-0.005325,0.00426,97492.16,31.77,-0.006129482
36.108566,0.067247,-0.205884,-0.260946,-9.83934,-9.844953,0,-0.005325,0.003195,97496.3,31.76,-0.020331482
36.175624,0.067058,-0.21546,-0.246582,-9.822582,-9.828039,0.00213,-0.003195,0.00213,97496.3,31.76,-0.003417482
36.242829,0.067205,-0.217854,-0.253764,-9.8154,-9.821096,0.003195,-0.00426,0.00426,97500.43,31.76,0.003525518
36.310222,0.067393,-0.237006,-0.270522,-9.817794,-9.82438,0,-0.00426,0.00213,97488.03,31.76,0.000241518
36.377791,0.067569,-0.193914,-0.232218,-9.80343,-9.808097,0.001065,-0.00426,0.00426,97496.3,31.76,0.016524518
36.444896,0.067105,-0.210672,-0.248976,-9.824976,-9.830388,0.003195,-0.005325,0.00426,97492.16,31.76,-0.005766482
36.512198,0.067302,-0.201096,-0.229824,-9.841734,-9.846471,0.003195,-0.005325,0,97496.3,31.76,-0.021849482
36.579096,0.066898,-0.220248,-0.248976,-9.820188,-9.825812,-0.001065,-0.003195,0.00213,97504.56,31.77,-0.001190482
36.646328,0.067232,-0.217854,-0.241794,-9.817794,-9.823187,0.00213,-0.00426,0.003195,97492.16,31.76,0.001434518
36.713009,0.066681,-0.198702,-0.27531,-9.841734,-9.847589,0.00213,-0.005325,0.001065,97496.3,31.77,-0.022967482
36.780096,0.067088,-0.210672,-0.25137,-9.813006,-9.818485,0.00213,-0.00426,0.003195,97496.3,31.77,0.006136518
36.847534,0.067438,-0.208278,-0.244188,-9.841734,-9.846966,0.003195,-0.005325,0.00426,97504.56,31.76,-0.022344482
36.914244,0.06671,-0.237006,-0.217854,-9.820188,-9.825463,0.001065,-0.00639,0.003195,97504.56,31.76,-0.000841482
36.981074,0.06683,-0.229824,-0.248976,-9.820188,-9.826032,-0.001065,-0.00426,0.00213,97496.3,31.76,-0.001410482
37.048805,0.067731,-0.213066,-0.21546,-9.834552,-9.839219,0,-0.005325,0.003195,97496.3,31.75,-0.014597482
37.117025,0.06822,-0.22743,-0.253764,-9.844128,-9.850024,-0.001065,-0.005325,0.00213,97496.3,31.77,-0.025402482
37.183426,0.066401,-0.232218,-0.253764,-9.808218,-9.814248,0.00213,-0.003195,0.00426,97483.9,31.76,0.010373518
37.251281,0.067855,-0.181944,-0.25137,-9.834552,-9.839446,0,-0.00426,0.005325,97504.56,31.76,-0.014824482
37.318107,0.066826,-0.198702,-0.232218,-9.82737,-9.832121,0.005325,-0.00639,0.005325,97496.3,31.76,-0.007499482
37.388335,0.070228,-0.22743,-0.25137,-9.822582,-9.82843,0.003195,-0.00639,0.003195,97504.56,31.75,-0.003808482
37.458127,0.069793,-0.198702,-0.277704,-9.817794,-9.823731,0.00213,-0.00426,0.003195,97508.7,31.76,0.000890518
37.529412,0.071284,-0.237006,-0.258552,-9.829764,-9.83602,0.005325,-0.00852,0.005325,97500.43,31.74,-0.011398482
37.600292,0.07088,-0.205884,-0.26334,-9.8154,-9.82109,0.001065,-0.005325,0.003195,97500.43,31.76,0.003531518
37.667701,0.067409,-0.241794,-0.258552,-9.805824,-9.812212,0.00213,-0.00426,0.00213,97500.43,31.75,0.012409518
37.736938,0.069238,-0.217854,-0.2394,-9.85131,-9.856626,0.001065,-0.00213,0.005325,97500.43,31.76,-0.032004482
37.808588,0.071649,-0.225036,-0.246582,-9.82737,-9.833038,0,-0.00213,0.001065,97500.43,31.76,-0.008416482
37.875827,0.067239,-0.20349,-0.237006,-9.834552,-9.839512,0.003195,-0.00639,0.00213,97504.56,31.76,-0.014890482
37.943128,0.067301,-0.217854,-0.256158,-9.824976,-9.830729,0.001065,-0.00426,0.005325,97500.43,31.76,-0.006107482
38.010332,0.067204,-0.2394,-0.248976,-9.824976,-9.831045,0.001065,-0.005325,0.005325,97496.3,31.76,-0.006423482
38.077072,0.066741,-0.201096,-0.260946,-9.80343,-9.808964,-0.00213,-0.001065,0.003195,97488.03,31.76,0.015657518
38.144439,0.067367,-0.213066,-0.270522,-9.805824,-9.811869,0.001065,-0.003195,0.003195,97492.16,31.76,0.012752518
38.211691,0.067252,-0.2394,-0.220248,-9.820188,-9.825574,0.001065,-0.003195,0.003195,97500.43,31.76,-0.000952482
38.279089,0.067399,-0.232218,-0.246582,-9.83934,-9.845168,0.003195,-0.00426,0.003195,97496.3,31.76,-0.020546482
38.346094,0.067005,-0.19152,-0.244188,-9.824976,-9.829876,0.003195,-0.00639,0.00426,97496.3,31.76,-0.005254482
38.412988,0.066894,-0.186732,-0.253764,-9.824976,-9.830026,0.00213,-0.00426,0.005325,97496.3,31.76,-0.005404482
38.480378,0.06739,-0.198702,-0.220248,-9.832158,-9.836632,-0.001065,-0.003195,0.003195,97504.56,31.75,-0.012010482
38.547699,0.067322,-0.234612,-0.2394,-9.841734,-9.84744,0.001065,-0.00639,0.00213,97496.3,31.76,-0.022818482
38.614365,0.066666,-0.22743,-0.256158,-9.810612,-9.816591,0.001065,-0.00213,0.00426,97500.43,31.76,0.008030518
38.681888,0.067523,-0.208278,-0.234612,-9.829764,-9.834769,0.001065,-0.005325,0.003195,97500.43,31.76,-0.010147482
38.750126,0.068238,-0.198702,-0.270522,-9.836946,-9.842671,0.00213,-0.005325,0.00213,97500.43,31.75,-0.018049482
38.827061,0.076935,-0.225036,-0.270522,-9.786672,-9.792996,0.00426,-0.007455,0.00426,97496.3,31.75,0.031625518
38.89553,0.068469,-0.222642,-0.26334,-9.817794,-9.823848,0.001065,-0.00639,0.00426,97492.16,31.76,0.000773518
38.968856,0.073327,-0.217854,-0.26334,-9.824976,-9.830919,0.00213,-0.00426,0.005325,97504.56,31.76,-0.006297482
39.039914,0.071057,-0.189126,-0.234612,-9.798642,-9.803275,0.00213,-0.00426,0.003195,97500.43,31.75,0.021346518
39.106379,0.066465,-0.220248,-0.248976,-9.836946,-9.842561,0.003195,-0.005325,0.003195,97504.56,31.76,-0.017939482
39.173709,0.06733,-0.2394,-0.277704,-9.829764,-9.8366,0.00213,-0.003195,0.00426,97504.56,31.76,-0.011978482
39.240822,0.067114,-0.208278,-0.241794,-9.834552,-9.839729,0.001065,-0.00213,0.00213,97496.3,31.76,-0.015107482
39.307875,0.067053,-0.208278,-0.244188,-9.808218,-9.813468,0.003195,-0.007455,0.005325,97500.43,31.75,0.011153518
39.374984,0.067109,-0.196308,-0.229824,-9.8154,-9.820053,0.001065,-0.00639,0.00426,97500.43,31.76,0.004568518
39.442044,0.067059,-0.22743,-0.256158,-9.841734,-9.847694,0.00213,-0.00426,0.003195,97500.43,31.76,-0.023072482
39.508671,0.066627,-0.232218,-0.272916,-9.832158,-9.838686,0.00213,-0.005325,0.003195,97492.16,31.75,-0.014064482
39.575667,0.066996,-0.213066,-0.248976,-9.822582,-9.828047,0.00213,-0.003195,0.00213,97504.56,31.75,-0.003425482
39.642872,0.067205,-0.234612,-0.248976,-9.82737,-9.833323,0.001065,-0.00426,0.00426,97500.43,31.75,-0.008701482
39.710384,0.067512,-0.189126,-0.22743,-9.834552,-9.838999,0.00213,-0.00639,0.00213,97504.56,31.76,-0.014377482
39.77757,0.067186,-0.2394,-0.260946,-9.813006,-9.819394,0.001065,-0.00426,0.003195,97496.3,31.76,0.005227518
39.84459,0.067019,-0.205884,-0.248976,-9.834552,-9.839857,0.00426,-0.007455,0.003195,97496.3,31.76,-0.015235482
39.911867,0.067278,-0.208278,-0.225036,-9.844128,-9.848902,0.00213,-0.005325,0.00426,97500.43,31.75,-0.024280482
39.978872,0.067004,-0.22743,-0.241794,-9.801036,-9.806656,0,-0.007455,0.00213,97496.3,31.75,0.017965518
40.045895,0.067023,-0.193914,-0.256158,-9.817794,-9.823049,0.00213,-0.00639,0.003195,97492.16,31.74,0.001572518
40.112985,0.06709,-0.220248,-0.25137,-9.829764,-9.835444,0.00426,-0.005325,0.00426,97504.56,31.75,-0.010822482
40.181758,0.068773,-0.234612,-0.256158,-9.798642,-9.804797,0.001065,-0.007455,0.00213,97488.03,31.75,0.019824518
40.25322,0.071462,-0.268128,-0.253764,-9.777096,-9.784063,-0.00213,-0.00426,0.00426,97504.56,31.75,0.040558518
40.325412,0.072192,-0.21546,-0.26334,-9.813006,-9.818903,0,-0.005325,0.00426,97492.16,31.76,0.005718518
40.393011,0.067599,-0.246582,-0.244188,-9.786672,-9.792823,0.003195,-0.00426,0.00426,97496.3,31.75,0.031798518
40.460386,0.067375,-0.208278,-0.234612,-9.820188,-9.825198,0.001065,-0.00852,0.005325,97500.43,31.76,-0.000576482
40.527428,0.067042,-0.26334,-0.258552,-9.8154,-9.822335,0.00213,-0.00639,0.00213,97496.3,31.76,0.002286518
40.594392,0.066965,-0.210672,-0.272916,-9.83934,-9.845378,0,-0.005325,0.003195,97496.3,31.75,-0.020756482
40.661655,0.067263,-0.225036,-0.22743,-9.846522,-9.851719,0.001065,-0.00213,0.003195,97500.43,31.76,-0.027097482
40.728787,0.067132,-0.225036,-0.237006,-9.848916,-9.854337,0.005325,-0.00426,0.003195,97496.3,31.75,-0.029715482
40.795562,0.066775,-0.225036,-0.256158,-9.789066,-9.795002,0.00213,-0.00426,0.003195,97496.3,31.75,0.029619518
40.862816,0.067254,-0.222642,-0.213066,-9.834552,-9.839379,0.00213,-0.005325,0.00213,97500.43,31.76,-0.014757482
40.930241,0.067426,-0.21546,-0.272916,-9.832158,-9.838305,0.00213,-0.005325,0.003195,97500.43,31.74,-0.013683482
40.997235,0.066994,-0.2394,-0.246582,-9.798642,-9.804667,0.001065,-0.003195,0.001065,97496.3,31.75,0.019954518
41.064392,0.067157,-0.234612,-0.222642,-9.848916,-9.854225,0,-0.003195,0.00213,97508.7,31.75,-0.029603482
41.13132,0.066928,-0.201096,-0.270522,-9.841734,-9.847505,0.001065,-0.00639,0.00426,97504.56,31.74,-0.022883482
41.198637,0.067318,-0.234612,-0.260946,-9.822582,-9.828848,0.00213,-0.00639,0.00426,97504.56,31.76,-0.004226482
41.265282,0.066645,-0.229824,-0.229824,-9.813006,-9.818387,0.003195,-0.00426,0.00426,97500.43,31.75,0.006234518
41.3325,0.067218,-0.20349,-0.2394,-9.8154,-9.820428,0,-0.005325,0.003195,97496.3,31.75,0.004193518
41.399713,0.067214,-0.241794,-0.277704,-9.817794,-9.824697,0.00213,-0.00426,0.003195,97508.7,31.76,-7.55E-05
41.466296,0.066582,-0.181944,-0.272916,-9.824976,-9.83045,0.00213,-0.005325,0.00426,97496.3,31.76,-0.005828482
41.533558,0.067263,-0.201096,-0.248976,-9.820188,-9.825402,0.005325,-0.007455,0.003195,97496.3,31.74,-0.000780482
41.600452,0.066894,-0.246582,-0.241794,-9.813006,-9.819081,0.00213,-0.00639,0.005325,97504.56,31.74,0.005540518
41.668757,0.068304,-0.234612,-0.232218,-9.829764,-9.835305,0,-0.003195,0.003195,97500.43,31.75,-0.010683482
41.739642,0.070885,-0.201096,-0.253764,-9.832158,-9.837488,-0.001065,-0.007455,0.003195,97496.3,31.74,-0.012866482
41.813853,0.074211,-0.210672,-0.258552,-9.834552,-9.840206,0.00213,-0.00639,0.003195,97496.3,31.75,-0.015584482
41.884144,0.070291,-0.222642,-0.225036,-9.824976,-9.830074,0,-0.00426,0.003195,97508.7,31.75,-0.005452482
41.950492,0.066347,-0.213066,-0.258552,-9.83934,-9.845042,0.001065,-0.005325,0.00213,97496.3,31.74,-0.020420482
42.018222,0.06773,-0.208278,-0.277704,-9.80343,-9.809574,0.00213,-0.00426,0.00426,97504.56,31.75,0.015047518
42.085032,0.066811,-0.205884,-0.225036,-9.820188,-9.824923,-0.00213,-0.001065,0.003195,97504.56,31.75,-0.000301482
42.151633,0.0666,-0.19152,-0.253764,-9.832158,-9.837297,0.00426,-0.00852,0.003195,97496.3,31.74,-0.012675482
42.218262,0.066629,-0.25137,-0.246582,-9.8154,-9.821714,0.003195,-0.007455,0.00426,97504.56,31.76,0.002907518
42.285036,0.066775,-0.222642,-0.225036,-9.829764,-9.83486,0.001065,-0.00426,0.001065,97496.3,31.74,-0.010238482
42.352684,0.067648,-0.162792,-0.26334,-9.844128,-9.848995,0.001065,-0.007455,0.003195,97496.3,31.74,-0.024373482
42.419429,0.066745,-0.234612,-0.246582,-9.824976,-9.83087,0.003195,-0.005325,0.00213,97496.3,31.74,-0.006248482
42.485808,0.066379,-0.21546,-0.244188,-9.820188,-9.825586,0.00213,-0.00213,0.007455,97496.3,31.74,-0.000964482
42.552473,0.066665,-0.198702,-0.246582,-9.841734,-9.846828,0.00426,-0.00639,0.001065,97496.3,31.74,-0.022206482
42.619251,0.066779,-0.22743,-0.253764,-9.829764,-9.835669,-0.001065,-0.00639,0.00213,97488.03,31.75,-0.011047482
42.686072,0.066821,-0.241794,-0.220248,-9.832158,-9.837596,0,-0.005325,0.00426,97500.43,31.75,-0.012974482
42.752582,0.06651,-0.213066,-0.253764,-9.834552,-9.840132,0.001065,-0.003195,0.00639,97488.03,31.74,-0.015510482
42.81986,0.067278,-0.220248,-0.272916,-9.82737,-9.833626,0.003195,-0.003195,0.005325,97496.3,31.74,-0.009004482
42.887432,0.067572,-0.205884,-0.210672,-9.813006,-9.817426,0.00213,-0.005325,0.00213,97504.56,31.74,0.007195518
42.95517,0.067738,-0.225036,-0.225036,-9.829764,-9.834914,0.001065,-0.007455,0.00213,97496.3,31.74,-0.010292482
43.026146,0.070977,-0.174762,-0.265734,-9.820188,-9.825337,0.001065,-0.00639,0.00213,97496.3,31.74,-0.000715482
43.098316,0.072169,-0.201096,-0.260946,-9.817794,-9.82332,0.005325,-0.007455,0.00426,97504.56,31.74,0.001301518
43.167625,0.06931,-0.222642,-0.2394,-9.832158,-9.837592,0.00639,-0.00639,0.00213,97496.3,31.74,-0.012970482
43.234862,0.067237,-0.210672,-0.222642,-9.82737,-9.832149,0.00213,-0.00639,0.001065,97504.56,31.75,-0.007527482
43.302132,0.06727,-0.205884,-0.25137,-9.8154,-9.820777,0.00213,-0.00426,0.005325,97496.3,31.74,0.003844518
43.36888,0.066747,-0.21546,-0.232218,-9.832158,-9.83726,0.00213,-0.00426,0.005325,97496.3,31.74,-0.012638482
43.435515,0.066635,-0.237006,-0.258552,-9.829764,-9.83602,0.001065,-0.005325,0.005325,97496.3,31.74,-0.011398482
43.502315,0.0668,-0.225036,-0.244188,-9.79146,-9.797089,0,-0.00213,0.001065,97504.56,31.75,0.027532518
43.568948,0.066634,-0.213066,-0.253764,-9.817794,-9.823384,0.003195,-0.00852,0.00213,97500.43,31.75,0.001237518
43.636378,0.06743,-0.208278,-0.2394,-9.844128,-9.849241,0,-0.00426,0.003195,97504.56,31.74,-0.024619482
43.703384,0.067006,-0.220248,-0.253764,-9.856098,-9.861824,0.001065,-0.00639,0.00213,97500.43,31.74,-0.037202482
43.771154,0.06777,-0.2394,-0.246582,-9.844128,-9.850125,0.00426,-0.00426,0.00426,97504.56,31.75,-0.025503482
43.838074,0.06692,-0.234612,-0.246582,-9.805824,-9.811729,0.001065,-0.005325,0.007455,97496.3,31.75,0.012892518
43.905002,0.066928,-0.217854,-0.208278,-9.824976,-9.829598,0,-0.00426,0.003195,97500.43,31.74,-0.004976482
43.971567,0.066566,-0.189126,-0.26334,-9.820188,-9.825539,0.001065,-0.00639,0.00213,97508.7,31.74,-0.000917482
44.038862,0.067295,-0.234612,-0.248976,-9.813006,-9.818967,0.00213,-0.00426,0.00213,97504.56,31.75,0.005654518
44.106465,0.067603,-0.196308,-0.2394,-9.836946,-9.841817,0.00213,-0.00426,0.00213,97496.3,31.75,-0.017195482
44.176811,0.070346,-0.234612,-0.258552,-9.808218,-9.81443,0.001065,-0.00639,0,97504.56,31.74,0.010191518
44.247326,0.070514,-0.198702,-0.258552,-9.829764,-9.835171,0.005325,-0.00426,0.005325,97492.16,31.74,-0.010549482
44.322643,0.075317,-0.20349,-0.229824,-9.832158,-9.836949,0.001065,-0.00426,0.001065,97504.56,31.73,-0.012327482
44.392402,0.069759,-0.222642,-0.220248,-9.844128,-9.849108,0.00213,-0.00639,0.003195,97504.56,31.75,-0.024486482
44.463572,0.071171,-0.21546,-0.258552,-9.824976,-9.830739,0.00426,-0.00639,0.001065,97504.56,31.73,-0.006117482
44.530333,0.066761,-0.213066,-0.253764,-9.822582,-9.828169,0,-0.007455,0.00426,97504.56,31.74,-0.003547482
44.598084,0.067751,-0.225036,-0.244188,-9.8154,-9.821016,-0.001065,-0.005325,0.00639,97504.56,31.75,0.003605518
44.665112,0.067028,-0.225036,-0.2394,-9.832158,-9.837646,0,-0.00639,0.00426,97500.43,31.74,-0.013024482
44.732972,0.06786,-0.232218,-0.253764,-9.822582,-9.828603,0.00426,-0.005325,0.00213,97504.56,31.74,-0.003981482
44.800687,0.067715,-0.20349,-0.258552,-9.813006,-9.81852,0.003195,-0.005325,0.005325,97488.03,31.74,0.006101518
44.867763,0.067076,-0.205884,-0.22743,-9.8154,-9.820193,-0.00213,-0.00426,0.003195,97500.43,31.74,0.004428518
44.935276,0.067513,-0.21546,-0.22743,-9.822582,-9.827577,0.003195,-0.007455,0.005325,97508.7,31.74,-0.002955482
45.005525,0.070249,-0.201096,-0.229824,-9.836946,-9.841685,0.005325,-0.005325,0.00213,97500.43,31.74,-0.017063482
45.075491,0.069966,-0.244188,-0.253764,-9.810612,-9.816931,0.00426,-0.00639,0.005325,97500.43,31.74,0.007690518
45.146363,0.070872,-0.237006,-0.284886,-9.817794,-9.824786,0,-0.005325,0.001065,97504.56,31.74,-0.000164482
45.213687,0.067324,-0.253764,-0.26334,-9.829764,-9.836565,0.001065,-0.007455,0.003195,97496.3,31.74,-0.011943482
45.280397,0.06671,-0.21546,-0.2394,-9.829764,-9.835039,0.001065,-0.00213,0.00426,97512.83,31.74,-0.010417482
45.34753,0.067133,-0.220248,-0.270522,-9.813006,-9.819205,0.00213,-0.005325,0.003195,97500.43,31.74,0.005416518
45.414594,0.067064,-0.232218,-0.237006,-9.82737,-9.83297,0.00213,-0.005325,0.00426,97496.3,31.74,-0.008348482
45.481611,0.067017,-0.210672,-0.222642,-9.808218,-9.813006,-0.001065,-0.00213,0.00213,97500.43,31.75,0.011615518
45.549285,0.067674,-0.234612,-0.268128,-9.848916,-9.855358,0.00213,-0.003195,0.00426,97496.3,31.74,-0.030736482
45.616239,0.066954,-0.19152,-0.258552,-9.8154,-9.820672,-0.003195,-0.00213,0.00426,97504.56,31.74,0.003949518
45.683207,0.066968,-0.17955,-0.237006,-9.813006,-9.81751,0.001065,-0.003195,0.003195,97500.43,31.74,0.007111518
45.749987,0.066781,-0.220248,-0.27531,-9.822582,-9.828907,0.003195,-0.00426,0.003195,97500.43,31.74,-0.004285482
45.817261,0.067274,-0.210672,-0.253764,-9.829764,-9.835296,0.00213,-0.005325,0.00426,97512.83,31.74,-0.010674482
45.88468,0.067419,-0.208278,-0.244188,-9.834552,-9.839788,0,-0.005325,0.00426,97496.3,31.74,-0.015166482
45.95202,0.067339,-0.210672,-0.260946,-9.824976,-9.830698,0.003195,-0.003195,0.003195,97500.43,31.74,-0.006076482
46.019336,0.067317,-0.186732,-0.229824,-9.8154,-9.819866,0.003195,-0.005325,0.00426,97500.43,31.74,0.004755518
46.086402,0.067066,-0.241794,-0.229824,-9.801036,-9.806711,0.001065,-0.005325,0.003195,97496.3,31.74,0.017910518
46.153865,0.067463,-0.217854,-0.229824,-9.820188,-9.825292,0.00426,-0.00426,0.003195,97500.43,31.74,-0.000670482
46.220935,0.06707,-0.260946,-0.280098,-9.83934,-9.846784,0.00213,-0.005325,0.003195,97500.43,31.74,-0.022162482
46.287654,0.066718,-0.222642,-0.225036,-9.841734,-9.846824,-0.001065,-0.003195,0.003195,97500.43,31.74,-0.022202482
46.354285,0.066631,-0.205884,-0.2394,-9.844128,-9.849191,0.00213,-0.00426,0.00213,97504.56,31.74,-0.024569482
46.42107,0.066785,-0.22743,-0.258552,-9.832158,-9.838186,0.003195,-0.005325,0.003195,97496.3,31.73,-0.013564482
46.488782,0.067712,-0.244188,-0.237006,-9.805824,-9.811727,-0.001065,-0.00213,0.003195,97500.43,31.73,0.012894518
46.556842,0.06806,-0.213066,-0.248976,-9.841734,-9.847188,0.001065,-0.007455,0.003195,97500.43,31.74,-0.022566482
46.623849,0.067007,-0.21546,-0.272916,-9.822582,-9.828735,0.001065,-0.00426,0.001065,97508.7,31.74,-0.004113482
46.693333,0.069483,-0.198702,-0.272916,-9.805824,-9.811633,0.001065,-0.005325,0.00213,97504.56,31.73,0.012988518
46.762292,0.06896,-0.220248,-0.213066,-9.820188,-9.824968,0.00213,-0.005325,0.00213,97508.7,31.74,-0.000346482
46.83389,0.071598,-0.21546,-0.234612,-9.836946,-9.842102,0,-0.00426,0.00426,97508.7,31.73,-0.017480482
46.902406,0.068516,-0.213066,-0.229824,-9.789066,-9.794081,0,-0.00426,0.003195,97512.83,31.74,0.030540518
46.969867,0.067461,-0.229824,-0.265734,-9.848916,-9.85518,0.00426,-0.00213,0.00213,97488.03,31.74,-0.030558482
47.037657,0.067791,-0.248976,-0.241794,-9.813006,-9.819142,0.00213,-0.005325,0.003195,97504.56,31.73,0.005479518
47.104864,0.067206,-0.210672,-0.256158,-9.834552,-9.840143,-0.001065,-0.007455,0.00213,97496.3,31.73,-0.015521482
47.171953,0.067089,-0.205884,-0.253764,-9.822582,-9.828016,0.001065,-0.00426,0.00213,97500.43,31.74,-0.003394482
47.239061,0.067108,-0.248976,-0.256158,-9.846522,-9.853,0.003195,-0.00639,0.003195,97504.56,31.73,-0.028378482
47.306417,0.067356,-0.220248,-0.22743,-9.8154,-9.820505,0.001065,-0.003195,0.00213,97504.56,31.73,0.004116518
47.378115,0.071698,-0.198702,-0.22743,-9.832158,-9.836795,0.003195,-0.005325,0.003195,97512.83,31.73,-0.012173482
47.450392,0.072278,-0.198702,-0.241794,-9.813006,-9.817995,-0.001065,-0.00426,0.003195,97504.56,31.73,0.006626518
47.517714,0.067322,-0.217854,-0.225036,-9.8154,-9.820396,0,-0.00426,0.00639,97500.43,31.73,0.004225518
47.584946,0.067232,-0.20349,-0.258552,-9.810612,-9.816128,0.003195,-0.005325,0.003195,97508.7,31.74,0.008493518
47.652039,0.067093,-0.2394,-0.2394,-9.820188,-9.826022,0.00213,-0.00639,0.003195,97496.3,31.72,-0.001400482
47.719357,0.067318,-0.2394,-0.241794,-9.813006,-9.818903,0.001065,-0.00639,0.003195,97504.56,31.74,0.005718518
47.786342,0.066984,-0.220248,-0.268128,-9.832158,-9.838279,0.003195,-0.005325,0.00213,97508.7,31.74,-0.013657482
47.853562,0.06722,-0.210672,-0.229824,-9.832158,-9.8371,0.003195,-0.00639,0.00426,97504.56,31.74,-0.012478482
47.9206,0.067038,-0.196308,-0.2394,-9.829764,-9.834638,0.00213,-0.005325,0.00213,97504.56,31.74,-0.010016482
47.987384,0.066785,-0.198702,-0.237006,-9.836946,-9.841807,0.001065,-0.00426,0.003195,97500.43,31.73,-0.017185482
48.055652,0.068268,-0.237006,-0.265734,-9.798642,-9.805109,0.001065,-0.00639,0.003195,97496.3,31.73,0.019512518
48.125748,0.070096,-0.225036,-0.234612,-9.810612,-9.815997,0.001065,-0.00639,0.00213,97496.3,31.73,0.008624518
48.199351,0.073603,-0.210672,-0.22743,-9.82737,-9.832259,0.001065,-0.00213,0.00213,97504.56,31.73,-0.007637482
48.267334,0.067982,-0.220248,-0.246582,-9.808218,-9.813789,0.001065,-0.00426,0.00639,97508.7,31.72,0.010832518
48.334276,0.066943,-0.210672,-0.232218,-9.85131,-9.856298,0.001065,-0.00639,0.005325,97504.56,31.73,-0.031676482
48.400998,0.066722,-0.20349,-0.241794,-9.822582,-9.827665,0.001065,-0.003195,0.00213,97504.56,31.73,-0.003043482
48.468145,0.067147,-0.213066,-0.258552,-9.824976,-9.830687,0.00213,-0.00213,0.003195,97500.43,31.74,-0.006065482
48.535684,0.067539,-0.198702,-0.22743,-9.841734,-9.846367,0.003195,-0.00213,0.003195,97504.56,31.73,-0.021745482
48.60237,0.066686,-0.217854,-0.210672,-9.822582,-9.827256,0.003195,-0.007455,0.00213,97500.43,31.74,-0.002634482
48.669484,0.067114,-0.213066,-0.248976,-9.80343,-9.808905,0.003195,-0.00426,0.00213,97508.7,31.74,0.015716518
48.737101,0.067617,-0.210672,-0.220248,-9.83934,-9.844059,0.001065,-0.00426,0.00213,97504.56,31.73,-0.019437482
48.804768,0.067667,-0.234612,-0.265734,-9.820188,-9.826584,0.00213,-0.005325,0.00639,97500.43,31.73,-0.001962482
48.871881,0.067113,-0.21546,-0.270522,-9.817794,-9.823883,0.003195,-0.00213,0.00426,97500.43,31.73,0.000738518
48.941583,0.069702,-0.229824,-0.260946,-9.813006,-9.819165,0.00213,-0.00639,0.003195,97492.16,31.73,0.005456518
49.010821,0.069238,-0.22743,-0.2394,-9.808218,-9.813775,0,-0.00426,0.00426,97500.43,31.73,0.010846518
49.081325,0.070504,-0.25137,-0.229824,-9.829764,-9.835663,0.00213,-0.003195,0.00426,97504.56,31.74,-0.011041482
49.149184,0.067859,-0.217854,-0.237006,-9.832158,-9.837427,0.001065,-0.00426,0.003195,97504.56,31.73,-0.012805482
49.217042,0.067858,-0.237006,-0.256158,-9.834552,-9.840742,0.00213,-0.00639,0.00213,97508.7,31.73,-0.016120482
49.284207,0.067165,-0.241794,-0.253764,-9.834552,-9.840796,0.00213,-0.00639,0.003195,97500.43,31.73,-0.016174482
49.352846,0.068639,-0.232218,-0.234612,-9.810612,-9.816164,0,-0.005325,0.003195,97496.3,31.73,0.008457518
49.419778,0.066932,-0.217854,-0.248976,-9.832158,-9.837722,0.00213,-0.00426,0.00213,97504.56,31.73,-0.013100482
49.487269,0.067492,-0.201096,-0.256158,-9.829764,-9.835157,0.00213,-0.007455,0.001065,97496.3,31.73,-0.010535482
49.554107,0.066838,-0.205884,-0.25137,-9.801036,-9.80642,0.001065,-0.00639,0.005325,97508.7,31.73,0.018201518
49.620522,0.066415,-0.210672,-0.25137,-9.832158,-9.837627,0.00213,-0.00426,0.001065,97500.43,31.73,-0.013005482
49.687291,0.066769,-0.205884,-0.256158,-9.82737,-9.832864,0.00213,-0.005325,0.003195,97500.43,31.74,-0.008242482
49.754534,0.067243,-0.22743,-0.232218,-9.824976,-9.830351,0,-0.00426,0.003195,97504.56,31.73,-0.005729482
49.821534,0.067,-0.16758,-0.234612,-9.822582,-9.826812,0,-0.005325,0.005325,97504.56,31.72,-0.002190482
49.888796,0.067262,-0.241794,-0.260946,-9.822582,-9.829022,0.003195,-0.007455,0.001065,97512.83,31.73,-0.004400482
49.956662,0.067866,-0.22743,-0.253764,-9.805824,-9.811743,-0.001065,-0.003195,0.005325,97504.56,31.73,0.012878518
50.023462,0.0668,-0.193914,-0.234612,-9.813006,-9.817725,0,-0.003195,0.00426,97504.56,31.72,0.006896518
50.09051,0.067048,-0.20349,-0.265734,-9.832158,-9.837853,0.003195,-0.003195,0.00426,97504.56,31.73,-0.013231482
50.157684,0.067174,-0.234612,-0.277704,-9.813006,-9.819738,0.001065,-0.005325,0.00426,97504.56,31.73,0.004883518
50.224762,0.067079,-0.229824,-0.22743,-9.841734,-9.847044,0.00213,-0.007455,0.001065,97512.83,31.73,-0.022422482
50.291698,0.066936,-0.222642,-0.232218,-9.83934,-9.844598,0.00213,-0.007455,0.00213,97500.43,31.73,-0.019976482
50.35907,0.067372,-0.198702,-0.258552,-9.824976,-9.830386,0.001065,-0.00639,0.003195,97508.7,31.73,-0.005764482
50.42567,0.0666,-0.213066,-0.232218,-9.808218,-9.81328,-0.001065,-0.003195,0.00426,97504.56,31.73,0.011341518
50.492815,0.067144,-0.229824,-0.232218,-9.829764,-9.835192,0.001065,-0.00426,0.003195,97504.56,31.73,-0.010570482
50.56062,0.067805,-0.234612,-0.26334,-9.832158,-9.838482,0.003195,-0.00639,0.005325,97508.7,31.73,-0.013860482
50.631022,0.070402,-0.241794,-0.265734,-9.8154,-9.821973,0.00213,-0.001065,0.005325,97496.3,31.72,0.002648518
50.700563,0.069541,-0.208278,-0.25137,-9.813006,-9.818434,0,-0.00426,0.00639,97496.3,31.73,0.006187518
50.77211,0.071547,-0.220248,-0.210672,-9.810612,-9.815345,0.003195,-0.003195,0.003195,97504.56,31.73,0.009276518
50.840725,0.068615,-0.220248,-0.241794,-9.824976,-9.830418,0.00213,-0.00639,0.00213,97496.3,31.73,-0.005796482
50.917059,0.076335,-0.19152,-0.237006,-9.83934,-9.844057,0.00213,-0.00639,0.003195,97512.83,31.72,-0.019435482
50.984395,0.067336,-0.217854,-0.253764,-9.80343,-9.809133,0.001065,-0.003195,0.003195,97504.56,31.72,0.015488518
51.051759,0.067364,-0.220248,-0.237006,-9.841734,-9.847051,0.003195,-0.00426,0.001065,97504.56,31.73,-0.022429482
51.119285,0.067526,-0.21546,-0.268128,-9.8154,-9.821425,0.003195,-0.00426,0.003195,97500.43,31.72,0.003196518
51.186352,0.067067,-0.205884,-0.220248,-9.822582,-9.827208,0.003195,-0.005325,0.00426,97512.83,31.72,-0.002586482
51.253614,0.067262,-0.21546,-0.241794,-9.8154,-9.820742,0,-0.00639,0.005325,97500.43,31.72,0.003879518
51.320578,0.066965,-0.210672,-0.268128,-9.824976,-9.830892,0.001065,-0.00213,0,97508.7,31.72,-0.006270482
51.387658,0.06708,-0.21546,-0.248976,-9.832158,-9.83767,0,-0.00426,0.003195,97500.43,31.72,-0.013048482
51.454247,0.066589,-0.222642,-0.2394,-9.817794,-9.823236,0.00213,-0.00639,0.001065,97516.96,31.73,0.001385518
51.521576,0.067329,-0.205884,-0.256158,-9.822582,-9.828078,0,-0.003195,0,97496.3,31.73,-0.003456482
51.588432,0.066856,-0.229824,-0.272916,-9.832158,-9.83863,0.00213,-0.005325,0.003195,97504.56,31.73,-0.014008482
51.65508,0.066647,-0.198702,-0.22743,-9.810612,-9.815259,0.001065,-0.003195,0.00426,97500.43,31.72,0.009362518
51.722339,0.067259,-0.25137,-0.268128,-9.824976,-9.831848,0.003195,-0.007455,0.003195,97512.83,31.72,-0.007226482
51.792872,0.070532,-0.201096,-0.246582,-9.801036,-9.8062,0.00426,-0.007455,0.00426,97504.56,31.72,0.018421518
51.860875,0.068003,-0.196308,-0.237006,-9.805824,-9.810652,0.003195,-0.00639,0.00426,97504.56,31.73,0.013969518
51.931841,0.070966,-0.225036,-0.22743,-9.824976,-9.830184,0.003195,-0.00639,0.001065,97500.43,31.73,-0.005562482
52.00744,0.075599,-0.234612,-0.246582,-9.8154,-9.821299,-0.001065,-0.005325,0.003195,97496.3,31.72,0.003322518
52.076886,0.069445,-0.222642,-0.260946,-9.817794,-9.823784,0,-0.00639,0.00213,97500.43,31.72,0.000837518
52.147988,0.071103,-0.237006,-0.256158,-9.808218,-9.814425,0.003195,-0.005325,0.00426,97504.56,31.72,0.010196518
52.215207,0.067219,-0.229824,-0.2394,-9.834552,-9.84015,0.001065,-0.003195,0.003195,97500.43,31.73,-0.015528482
52.282795,0.067587,-0.229824,-0.225036,-9.829764,-9.835025,0,-0.005325,0.003195,97504.56,31.72,-0.010403482
52.350218,0.067424,-0.222642,-0.253764,-9.808218,-9.814026,0.00213,-0.007455,0.00426,97496.3,31.73,0.010595518
52.41765,0.067432,-0.217854,-0.268128,-9.824976,-9.831048,0.00213,-0.005325,0.003195,97504.56,31.73,-0.006426482
52.484816,0.067166,-0.19152,-0.2394,-9.83934,-9.844115,0.001065,-0.003195,0.00213,97508.7,31.72,-0.019493482
52.55174,0.066925,-0.220248,-0.253764,-9.848916,-9.854646,0.00426,-0.009585,0.005325,97508.7,31.73,-0.030024482
52.621229,0.069489,-0.208278,-0.282492,-9.813006,-9.81928,0.00426,-0.00639,0.00426,97504.56,31.72,0.005341518
52.689203,0.067974,-0.217854,-0.22743,-9.82737,-9.832415,0,-0.00426,0.003195,97500.43,31.72,-0.007793482
52.759729,0.070526,-0.198702,-0.220248,-9.846522,-9.850989,0.003195,-0.005325,0.003195,97500.43,31.72,-0.026367482
52.830546,0.070817,-0.196308,-0.225036,-9.798642,-9.803191,0.00213,-0.005325,0.005325,97496.3,31.72,0.021430518
52.897745,0.067199,-0.21546,-0.248976,-9.82737,-9.832884,0.003195,-0.00426,0.001065,97500.43,31.73,-0.008262482
52.964871,0.067126,-0.22743,-0.258552,-9.8154,-9.821438,0,-0.005325,0.00213,97504.56,31.73,0.003183518
53.032483,0.067612,-0.217854,-0.244188,-9.836946,-9.842388,0.001065,-0.00639,0.005325,97508.7,31.73,-0.017766482
53.099541,0.067058,-0.208278,-0.248976,-9.820188,-9.825551,0,-0.00852,0.003195,97508.7,31.72,-0.000929482
53.166831,0.06729,-0.220248,-0.2394,-9.824976,-9.83036,0.00213,-0.00639,0.00639,97508.7,31.73,-0.005738482
53.2335,0.066669,-0.21546,-0.280098,-9.832158,-9.838506,0.003195,-0.005325,0.003195,97500.43,31.72,-0.013884482
53.304428,0.070928,-0.21546,-0.241794,-9.805824,-9.811171,0.00213,-0.005325,0.00213,97504.56,31.72,0.013450518
53.377039,0.072612,-0.217854,-0.225036,-9.805824,-9.810825,0,-0.00426,0.003195,97496.3,31.72,0.013796518
53.445797,0.068758,-0.184338,-0.237006,-9.810612,-9.815206,0.003195,-0.00426,0.001065,97500.43,31.72,0.009415518
53.516976,0.071178,-0.232218,-0.248976,-9.817794,-9.823695,0.00639,-0.00426,0.003195,97500.43,31.72,0.000926518
53.586975,0.069999,-0.22743,-0.2394,-9.834552,-9.840094,0.00426,-0.00426,0.003195,97504.56,31.72,-0.015472482
53.65573,0.068755,-0.241794,-0.222642,-9.822582,-9.82808,-0.00213,-0.00426,0.00426,97508.7,31.72,-0.003458482
53.723694,0.067965,-0.213066,-0.27531,-9.836946,-9.843104,0.003195,-0.00852,0.00426,97504.56,31.72,-0.018482482
53.790951,0.067257,-0.22743,-0.253764,-9.810612,-9.816528,0,-0.00426,0.003195,97504.56,31.72,0.008093518
53.858361,0.06741,-0.217854,-0.225036,-9.820188,-9.825182,0,-0.00639,0.00426,97508.7,31.72,-0.000560482
53.925289,0.066928,-0.205884,-0.272916,-9.82737,-9.833314,0,-0.005325,0.00213,97512.83,31.72,-0.008692482
53.992513,0.067224,-0.208278,-0.27531,-9.817794,-9.823861,0.00213,-0.00426,0.003195,97504.56,31.72,0.000760518
54.059522,0.067008,-0.220248,-0.229824,-9.8154,-9.82056,0.001065,-0.005325,0.00426,97504.56,31.72,0.004061518
54.126337,0.066816,-0.222642,-0.244188,-9.810612,-9.816176,0.001065,-0.009585,0.005325,97496.3,31.72,0.008445518
54.193727,0.06739,-0.260946,-0.229824,-9.822582,-9.828735,0.00426,-0.007455,0.00213,97504.56,31.72,-0.004113482
54.260717,0.066989,-0.208278,-0.234612,-9.810612,-9.815627,0,-0.00426,0.00426,97504.56,31.72,0.008994518
54.327449,0.066733,-0.222642,-0.25137,-9.836946,-9.842676,0.001065,-0.005325,0.00426,97512.83,31.72,-0.018054482
54.394285,0.066835,-0.196308,-0.258552,-9.829764,-9.835123,0.005325,-0.00639,0.003195,97512.83,31.72,-0.010501482
54.462343,0.068058,-0.217854,-0.229824,-9.82737,-9.832471,0.001065,-0.005325,0.001065,97504.56,31.72,-0.007849482
54.530151,0.067807,-0.205884,-0.241794,-9.801036,-9.80618,0.001065,-0.007455,0.00639,97508.7,31.72,0.018441518
54.597704,0.067553,-0.201096,-0.248976,-9.824976,-9.830187,0.00213,-0.00639,0.003195,97496.3,31.72,-0.005565482
54.665127,0.067423,-0.220248,-0.26334,-9.841734,-9.84772,0.00426,-0.007455,0.001065,97504.56,31.72,-0.023098482
54.736408,0.071281,-0.234612,-0.217854,-9.832158,-9.837369,0.003195,-0.00426,0.00426,97508.7,31.72,-0.012747482
54.805669,0.069261,-0.193914,-0.22743,-9.834552,-9.839092,0.00213,-0.003195,0.003195,97512.83,31.72,-0.014470482
54.880753,0.075084,-0.21546,-0.25137,-9.813006,-9.818589,0.001065,-0.005325,0.003195,97504.56,31.72,0.006032518
54.948095,0.067342,-0.232218,-0.225036,-9.834552,-9.839867,0.001065,-0.005325,0.00213,97504.56,31.72,-0.015245482
55.017188,0.069093,-0.217854,-0.229824,-9.824976,-9.830078,0.003195,-0.007455,0.003195,97512.83,31.72,-0.005456482
55.089684,0.072496,-0.21546,-0.258552,-9.8154,-9.821168,0,-0.00426,0.00426,97508.7,31.71,0.003453518
55.157801,0.068117,-0.213066,-0.22743,-9.846522,-9.851453,0.00213,-0.00639,0.00426,97500.43,31.71,-0.026831482
55.228154,0.070353,-0.237006,-0.220248,-9.848916,-9.854229,0.003195,-0.00852,0.00213,97504.56,31.72,-0.029607482
55.302739,0.074584,-0.208278,-0.280098,-9.846522,-9.852707,0.001065,-0.007455,0.003195,97504.56,31.72,-0.028085482
55.36943,0.066692,-0.225036,-0.253764,-9.846522,-9.852362,0.00213,-0.00852,0.003195,97504.56,31.71,-0.027740482
55.436735,0.067304,-0.19152,-0.253764,-9.829764,-9.834904,0.00213,-0.00852,0.00639,97504.56,31.72,-0.010282482
55.503351,0.066617,-0.21546,-0.246582,-9.82737,-9.832824,0.00213,-0.001065,0.00426,97512.83,31.71,-0.008202482
55.570716,0.067365,-0.189126,-0.25137,-9.834552,-9.839582,0,-0.005325,0.003195,97504.56,31.72,-0.014960482
55.637659,0.066943,-0.217854,-0.260946,-9.79146,-9.797359,0.001065,-0.00639,0.003195,97508.7,31.72,0.027262518
55.704866,0.067206,-0.21546,-0.217854,-9.820188,-9.824967,0,-0.00639,0.003195,97496.3,31.72,-0.000345482
55.771683,0.066818,-0.208278,-0.222642,-9.83934,-9.844062,0.001065,-0.007455,0.00426,97512.83,31.72,-0.019440482
55.839336,0.067653,-0.220248,-0.268128,-9.82737,-9.833494,0.00426,-0.009585,0.00213,97504.56,31.72,-0.008872482
55.906356,0.06702,-0.210672,-0.253764,-9.808218,-9.813762,-0.001065,-0.003195,0.003195,97508.7,31.72,0.010859518
55.972702,0.066346,-0.208278,-0.213066,-9.832158,-9.836672,0.00213,-0.005325,0.00213,97508.7,31.72,-0.012050482
56.04,0.067298,-0.237006,-0.2394,-9.8154,-9.821179,0.00426,-0.005325,0.00426,97516.96,31.72,0.003442518
56.106975,0.066975,-0.220248,-0.237006,-9.820188,-9.825516,0,-0.009585,0.005325,97504.56,31.72,-0.000894482
56.174244,0.06727,-0.217854,-0.244188,-9.822582,-9.828032,0.003195,-0.00639,0.003195,97508.7,31.72,-0.003410482
56.245374,0.07113,-0.225036,-0.246582,-9.86328,-9.868928,0.00213,-0.007455,0.00426,97504.56,31.72,-0.044306482
56.319686,0.074312,-0.210672,-0.244188,-9.824976,-9.830268,0.001065,-0.00426,0.00213,97508.7,31.72,-0.005646482
56.388061,0.068375,-0.20349,-0.234612,-9.836946,-9.841847,-0.001065,-0.005325,0.00426,97512.83,31.72,-0.017225482
56.458422,0.070361,-0.198702,-0.244188,-9.801036,-9.806091,0.007455,-0.00639,0.003195,97512.83,31.71,0.018530518
56.531482,0.07306,-0.217854,-0.270522,-9.844128,-9.850254,0,-0.00639,0.003195,97504.56,31.72,-0.025632482
56.599081,0.067599,-0.225036,-0.232218,-9.832158,-9.837474,0.001065,-0.00852,-0.001065,97504.56,31.72,-0.012852482
56.666332,0.067251,-0.19152,-0.256158,-9.829764,-9.834966,0.001065,-0.005325,0.003195,97512.83,31.72,-0.010344482
56.734067,0.067735,-0.225036,-0.232218,-9.836946,-9.84226,0,-0.007455,0.00213,97512.83,31.72,-0.017638482
56.801165,0.067098,-0.210672,-0.234612,-9.822582,-9.827642,0.00213,-0.00852,0.00426,97504.56,31.72,-0.003020482
56.86816,0.066995,-0.229824,-0.277704,-9.817794,-9.824409,0.001065,-0.005325,0.001065,97496.3,31.72,0.000212518
56.935457,0.067297,-0.196308,-0.253764,-9.820188,-9.825427,0.00213,-0.001065,0.005325,97500.43,31.72,-0.000805482
57.002316,0.066859,-0.205884,-0.234612,-9.822582,-9.82754,0.001065,-0.003195,0.003195,97504.56,31.72,-0.002918482
57.07361,0.071294,-0.208278,-0.277704,-9.820188,-9.826321,0.003195,-0.005325,0.005325,97508.7,31.72,-0.001699482
57.143186,0.069576,-0.217854,-0.253764,-9.836946,-9.84263,0.003195,-0.00426,0.00213,97504.56,31.72,-0.018008482
57.213187,0.07,-0.213066,-0.26334,-9.834552,-9.840384,0.00426,-0.00852,0.007455,97500.43,31.71,-0.015762482
57.28144,0.068253,-0.21546,-0.241794,-9.822582,-9.82792,0,-0.00426,0.00213,97508.7,31.7,-0.003298482
57.349115,0.067675,-0.181944,-0.232218,-9.82737,-9.831797,0.001065,-0.00639,0.001065,97512.83,31.72,-0.007175482
57.416978,0.067863,-0.22743,-0.22743,-9.832158,-9.837417,0.001065,-0.007455,0.005325,97508.7,31.72,-0.012795482
57.487507,0.07053,-0.213066,-0.248976,-9.834552,-9.84001,0.00213,-0.005325,0.00213,97504.56,31.71,-0.015388482
57.561743,0.074236,-0.22743,-0.26334,-9.836946,-9.843098,0.001065,-0.00852,0.00426,97500.43,31.71,-0.018476482
57.630432,0.068689,-0.19152,-0.22743,-9.846522,-9.85101,0.001065,-0.00639,0.003195,97504.56,31.72,-0.026388482
57.697214,0.066782,-0.210672,-0.256158,-9.83934,-9.844928,0,-0.005325,0.00213,97508.7,31.71,-0.020306482
57.763989,0.066775,-0.22743,-0.225036,-9.80343,-9.80865,-0.001065,-0.00639,0.003195,97504.56,31.71,0.015971518
57.830291,0.066302,-0.21546,-0.234612,-9.817794,-9.82296,0.001065,-0.007455,0.00213,97496.3,31.72,0.001661518
57.897255,0.066965,-0.208278,-0.232218,-9.817794,-9.822748,0.003195,-0.00639,0.003195,97496.3,31.71,0.001873518
57.964263,0.067008,-0.220248,-0.225036,-9.820188,-9.825235,0.00213,-0.00639,0.003195,97512.83,31.71,-0.000613482
58.031429,0.067165,-0.222642,-0.210672,-9.808218,-9.813006,0.00213,-0.005325,0.00213,97500.43,31.72,0.011615518
58.098965,0.067537,-0.220248,-0.220248,-9.820188,-9.825126,0.00426,-0.00639,0.00213,97508.7,31.71,-0.000504482
58.166099,0.067134,-0.213066,-0.241794,-9.820188,-9.825475,-0.001065,-0.003195,0.00213,97500.43,31.7,-0.000853482
58.232215,0.066116,-0.22743,-0.244188,-9.798642,-9.804322,0.001065,-0.00213,0.001065,97504.56,31.72,0.020299518
58.299075,0.066859,-0.19152,-0.26334,-9.829764,-9.835156,0.001065,-0.007455,0.00213,97512.83,31.71,-0.010534482
58.366292,0.067217,-0.217854,-0.237006,-9.832158,-9.837427,0.001065,-0.00213,0.00639,97504.56,31.72,-0.012805482
58.433191,0.066899,-0.205884,-0.229824,-9.8154,-9.820249,0.001065,-0.009585,0.00639,97508.7,31.71,0.004372518
58.499977,0.066786,-0.210672,-0.248976,-9.813006,-9.818424,0.001065,-0.00852,0.003195,97504.56,31.71,0.006197518
58.566808,0.066831,-0.208278,-0.277704,-9.834552,-9.840676,0,-0.005325,0.005325,97508.7,31.71,-0.016054482
58.63407,0.067263,-0.222642,-0.232218,-9.829764,-9.835027,0,-0.005325,0.005325,97512.83,31.71,-0.010405482
58.702407,0.068337,-0.198702,-0.2394,-9.80343,-9.808366,0.00426,-0.007455,0.005325,97496.3,31.71,0.016255518
58.770175,0.067768,-0.196308,-0.256158,-9.820188,-9.82549,0.003195,-0.005325,0.001065,97508.7,31.71,-0.000868482
58.840314,0.070139,-0.246582,-0.244188,-9.820188,-9.826318,0.00213,-0.005325,0.003195,97508.7,31.72,-0.001696482
58.90737,0.067056,-0.2394,-0.234612,-9.8154,-9.821122,0,-0.003195,0.00213,97508.7,31.71,0.003499518
58.977086,0.069716,-0.193914,-0.260946,-9.834552,-9.839924,0.003195,-0.007455,0.003195,97512.83,31.7,-0.015302482
59.048665,0.071578,-0.213066,-0.256158,-9.834552,-9.840194,0.005325,-0.007455,0.003195,97508.7,31.7,-0.015572482
59.116875,0.06821,-0.22743,-0.2394,-9.836946,-9.842487,0.00213,-0.007455,0.003195,97508.7,31.71,-0.017865482
59.187184,0.070309,-0.222642,-0.244188,-9.82737,-9.832924,0.00213,-0.00639,0,97496.3,31.71,-0.008302482
59.257889,0.070705,-0.213066,-0.280098,-9.83934,-9.845632,0.00426,-0.00639,0.003195,97508.7,31.71,-0.021010482
59.327931,0.070042,-0.222642,-0.258552,-9.832158,-9.838077,0.00213,-0.005325,0.003195,97504.56,31.71,-0.013455482
59.395025,0.067094,-0.234612,-0.25137,-9.834552,-9.840561,0,-0.005325,0.00213,97516.96,31.71,-0.015939482
59.462127,0.067102,-0.253764,-0.241794,-9.834552,-9.840796,0.003195,-0.00426,0.003195,97512.83,31.71,-0.016174482
59.529798,0.067671,-0.201096,-0.256158,-9.820188,-9.825586,0.00213,-0.003195,0.00213,97512.83,31.71,-0.000964482
59.596936,0.067138,-0.19152,-0.258552,-9.824976,-9.830243,0.001065,-0.00639,0.003195,97504.56,31.71,-0.005621482
59.664107,0.067171,-0.205884,-0.220248,-9.832158,-9.836779,0,-0.003195,0.00213,97508.7,31.72,-0.012157482
59.731254,0.067147,-0.22743,-0.232218,-9.844128,-9.849493,0.00426,-0.00852,0.00426,97508.7,31.71,-0.024871482
59.798387,0.067133,-0.237006,-0.26334,-9.813006,-9.8194,0,-0.00639,0.00426,97508.7,31.72,0.005221518
59.865541,0.067154,-0.222642,-0.232218,-9.796248,-9.801529,-0.001065,-0.003195,0.00213,97500.43,31.7,0.023092518
59.932566,0.067025,-0.208278,-0.220248,-9.844128,-9.848794,0.001065,-0.007455,0.003195,97504.56,31.71,-0.024172482
59.999489,0.066923,-0.21546,-0.234612,-9.824976,-9.830138,0.00213,-0.009585,0.00213,97512.83,31.71,-0.005516482
60.066936,0.067447,-0.234612,-0.237006,-9.8154,-9.821064,0.001065,-0.005325,0.003195,97516.96,31.7,0.003557518
60.1341,0.067165,-0.19152,-0.253764,-9.846522,-9.851653,0.001065,-0.005325,0.005325,97500.43,31.71,-0.027031482
60.200915,0.066814,-0.213066,-0.248976,-9.817794,-9.823261,0.00213,-0.00426,0.003195,97504.56,31.7,0.001360518
60.268116,0.067201,-0.208278,-0.25137,-9.798642,-9.804078,0.003195,-0.00639,0.005325,97504.56,31.7,0.020543518
60.339497,0.071382,-0.22743,-0.229824,-9.844128,-9.849437,0.001065,-0.00639,0.00213,97504.56,31.71,-0.024815482
60.409047,0.06955,-0.198702,-0.2394,-9.820188,-9.825115,0.003195,-0.00852,0.00639,97500.43,31.71,-0.000493482
60.480438,0.07139,-0.186732,-0.258552,-9.824976,-9.830151,-0.001065,-0.00639,0.003195,97508.7,31.71,-0.005529482
60.548851,0.068413,-0.21546,-0.229824,-9.832158,-9.837204,0,-0.00426,0.00426,97508.7,31.7,-0.012582482
60.620985,0.072134,-0.225036,-0.256158,-9.83934,-9.845246,0.003195,-0.00426,0.00213,97504.56,31.7,-0.020624482
60.692871,0.071886,-0.222642,-0.248976,-9.82737,-9.833044,0.00213,-0.00639,0.003195,97508.7,31.7,-0.008422482
60.759985,0.067115,-0.220248,-0.232218,-9.80343,-9.808653,0.003195,-0.007455,0.005325,97504.56,31.71,0.015968518
60.827095,0.06711,-0.246582,-0.244188,-9.832158,-9.83828,0,-0.003195,0.00426,97508.7,31.71,-0.013658482
60.894593,0.067498,-0.248976,-0.229824,-9.829764,-9.835602,0.001065,-0.00426,0.007455,97508.7,31.71,-0.010980482
60.961795,0.067203,-0.193914,-0.27531,-9.834552,-9.840316,0,-0.00426,0.00213,97504.56,31.7,-0.015694482
61.028775,0.06698,-0.234612,-0.26334,-9.789066,-9.795417,0,-0.00639,0.001065,97512.83,31.7,0.029204518
61.096064,0.067289,-0.201096,-0.22743,-9.836946,-9.841629,0.001065,-0.00639,0.001065,97496.3,31.71,-0.017007482
61.162992,0.066928,-0.210672,-0.232218,-9.817794,-9.822799,0.001065,-0.007455,0.005325,97496.3,31.7,0.001822518
61.230163,0.067171,-0.208278,-0.246582,-9.832158,-9.837455,0.00426,-0.00852,0.00426,97504.56,31.71,-0.012833482
61.297017,0.066854,-0.244188,-0.232218,-9.817794,-9.823575,-0.00213,-0.00426,0,97512.83,31.71,0.001046518
61.364095,0.067078,-0.210672,-0.205884,-9.813006,-9.817426,0.001065,-0.00426,0.00213,97500.43,31.7,0.007195518
61.432065,0.067969,-0.217854,-0.260946,-9.841734,-9.847603,0.00213,-0.00639,0.003195,97504.56,31.7,-0.022981482
61.502252,0.070188,-0.220248,-0.248976,-9.836946,-9.842561,0.003195,-0.00852,0.005325,97504.56,31.7,-0.017939482
61.570289,0.068037,-0.201096,-0.246582,-9.829764,-9.834912,0,-0.005325,0.001065,97504.56,31.7,-0.010290482
61.64085,0.07056,-0.21546,-0.2394,-9.808218,-9.813505,0.00426,-0.007455,0.003195,97512.83,31.7,0.011116518
61.709109,0.068259,-0.225036,-0.237006,-9.822582,-9.828018,0.001065,-0.003195,0.00426,97508.7,31.7,-0.003396482
61.777115,0.068007,-0.20349,-0.248976,-9.80343,-9.808702,0.00213,-0.007455,0.00426,97512.83,31.69,0.015919518
61.844889,0.067773,-0.225036,-0.26334,-9.820188,-9.826295,0.003195,-0.005325,0.003195,97512.83,31.7,-0.001673482
61.912006,0.067118,-0.234612,-0.2394,-9.836946,-9.842655,0,-0.007455,0.00426,97512.83,31.71,-0.018033482
61.979163,0.067156,-0.21546,-0.22743,-9.808218,-9.81322,0.003195,-0.00426,0.00426,97508.7,31.7,0.011401518
62.046274,0.067112,-0.208278,-0.280098,-9.836946,-9.843137,0.00426,-0.00426,0.003195,97504.56,31.69,-0.018515482
62.113428,0.067154,-0.210672,-0.258552,-9.810612,-9.816279,0,-0.003195,0.005325,97512.83,31.7,0.008342518
62.180435,0.067007,-0.234612,-0.244188,-9.841734,-9.847558,-0.001065,-0.00213,0.00213,97512.83,31.7,-0.022936482
62.247599,0.067165,-0.234612,-0.229824,-9.820188,-9.825678,0.001065,-0.00426,0.00213,97496.3,31.69,-0.001056482
62.314308,0.066709,-0.21546,-0.253764,-9.822582,-9.828221,0.00213,-0.00639,0.00213,97512.83,31.69,-0.003599482
62.381524,0.067216,-0.201096,-0.246582,-9.82737,-9.83252,0,-0.00852,0.00426,97512.83,31.69,-0.007898482
62.449455,0.067931,-0.201096,-0.258552,-9.836946,-9.842398,0.003195,-0.00426,0.00213,97504.56,31.71,-0.017776482
62.517116,0.067662,-0.232218,-0.256158,-9.824976,-9.831058,0.001065,-0.00639,0,97512.83,31.71,-0.006436482
62.584253,0.067136,-0.220248,-0.248976,-9.832158,-9.837776,-0.001065,-0.00639,0.00213,97512.83,31.7,-0.013154482
62.654872,0.070619,-0.220248,-0.2394,-9.805824,-9.811218,-0.001065,-0.005325,0.00426,97512.83,31.71,0.013403518
62.728115,0.073243,-0.21546,-0.225036,-9.853704,-9.858628,0,-0.003195,0.003195,97496.3,31.7,-0.034006482
62.795648,0.067533,-0.213066,-0.246582,-9.822582,-9.827986,0.001065,-0.00213,0.00426,97508.7,31.7,-0.003364482
62.86325,0.067603,-0.20349,-0.253764,-9.848916,-9.854286,0.001065,-0.00639,0.00213,97512.83,31.69,-0.029664482
62.930858,0.067607,-0.220248,-0.260946,-9.832158,-9.838086,0.003195,-0.007455,0.00213,97508.7,31.69,-0.013464482
63.000679,0.069821,-0.217854,-0.246582,-9.817794,-9.823306,0.001065,-0.00426,0.003195,97512.83,31.71,0.001315518
63.080779,0.0801,-0.229824,-0.237006,-9.836946,-9.842484,0.001065,-0.005325,0.00426,97500.43,31.68,-0.017862482
63.154114,0.073335,-0.229824,-0.234612,-9.808218,-9.813715,0.001065,-0.005325,0.003195,97512.83,31.69,0.010906518
63.221119,0.067005,-0.229824,-0.246582,-9.822582,-9.828364,0.00213,-0.00639,0.00426,97512.83,31.69,-0.003742482
63.288291,0.067172,-0.222642,-0.265734,-9.822582,-9.828698,0.00213,-0.005325,0.00213,97512.83,31.7,-0.004076482
63.355877,0.067586,-0.21546,-0.220248,-9.810612,-9.815449,-0.001065,-0.005325,0.005325,97504.56,31.7,0.009172518
63.42304,0.067163,-0.248976,-0.2394,-9.83934,-9.845401,0,-0.00639,0.001065,97508.7,31.7,-0.020779482
63.490329,0.067289,-0.229824,-0.241794,-9.86328,-9.86892,0.001065,-0.01065,0.00213,97508.7,31.7,-0.044298482
63.559938,0.069608,-0.217854,-0.241794,-9.817794,-9.823187,0.003195,-0.00639,0.003195,97512.83,31.69,0.001434518
63.628129,0.068191,-0.220248,-0.241794,-9.829764,-9.835204,0.00213,-0.00639,0.005325,97504.56,31.7,-0.010582482
63.698293,0.070164,-0.205884,-0.222642,-9.824976,-9.829655,0.003195,-0.005325,0.003195,97508.7,31.7,-0.005033482
63.768803,0.07051,-0.208278,-0.241794,-9.810612,-9.815801,0,-0.003195,0.003195,97512.83,31.69,0.008820518
63.83604,0.067237,-0.210672,-0.26334,-9.822582,-9.82837,0.001065,-0.007455,0.00426,97504.56,31.7,-0.003748482
63.903092,0.067052,-0.198702,-0.26334,-9.834552,-9.840084,0.001065,-0.007455,0.003195,97512.83,31.7,-0.015462482
63.970398,0.067306,-0.20349,-0.248976,-9.789066,-9.794346,-0.001065,-0.005325,0.00213,97504.56,31.69,0.030275518
64.037472,0.067074,-0.244188,-0.2394,-9.846522,-9.852458,0.003195,-0.005325,0.00639,97512.83,31.7,-0.027836482
64.104556,0.067084,-0.222642,-0.246582,-9.793854,-9.799487,0.00213,-0.00639,0.003195,97504.56,31.7,0.025134518
64.171853,0.067297,-0.21546,-0.241794,-9.817794,-9.823134,-0.001065,-0.003195,0.003195,97512.83,31.69,0.001487518
64.238863,0.06701,-0.232218,-0.222642,-9.808218,-9.813492,0.001065,-0.005325,0.003195,97508.7,31.7,0.011129518
64.305593,0.066729,-0.234612,-0.253764,-9.822582,-9.82866,0.00213,-0.00639,0.003195,97508.7,31.69,-0.004038482
64.37262,0.067027,-0.256158,-0.241794,-9.824976,-9.831289,0.001065,-0.005325,0.001065,97508.7,31.69,-0.006667482
64.440038,0.067419,-0.237006,-0.229824,-9.824976,-9.830521,0.003195,-0.003195,0.00213,97508.7,31.7,-0.005899482
64.507168,0.067129,-0.189126,-0.229824,-9.824976,-9.829483,0.003195,-0.005325,0.00213,97512.83,31.69,-0.004861482
64.574932,0.067764,-0.232218,-0.248976,-9.820188,-9.826088,0.001065,-0.007455,0.003195,97512.83,31.69,-0.001466482
64.642166,0.067234,-0.229824,-0.217854,-9.83934,-9.844435,0.00213,-0.005325,0,97512.83,31.7,-0.019813482
64.708825,0.066659,-0.22743,-0.246582,-9.820188,-9.825916,0.001065,-0.00426,0.00426,97504.56,31.69,-0.001294482
64.776506,0.06768,-0.196308,-0.272916,-9.841734,-9.847474,0.00213,-0.00426,0.001065,97508.7,31.69,-0.022852482
64.842966,0.06646,-0.205884,-0.25137,-9.810612,-9.815991,-0.00213,-0.005325,0.00213,97504.56,31.7,0.008630518
64.910178,0.067212,-0.210672,-0.2394,-9.83934,-9.844506,0,-0.005325,0,97500.43,31.69,-0.019884482
64.977756,0.067578,-0.20349,-0.241794,-9.824976,-9.830057,0.003195,-0.007455,0.003195,97512.83,31.69,-0.005435482
65.044936,0.06718,-0.20349,-0.241794,-9.829764,-9.834843,0.003195,-0.00639,0.005325,97508.7,31.7,-0.010221482
65.112132,0.067196,-0.244188,-0.229824,-9.841734,-9.847445,0,-0.00639,0.003195,97504.56,31.7,-0.022823482
65.179445,0.067313,-0.210672,-0.234612,-9.824976,-9.830035,0.00213,-0.00426,0,97508.7,31.68,-0.005413482
65.252583,0.073138,-0.20349,-0.2394,-9.834552,-9.83957,0.003195,-0.009585,0.00426,97516.96,31.7,-0.014948482
65.323669,0.071086,-0.210672,-0.258552,-9.817794,-9.823457,0.00213,-0.00213,0.00213,97512.83,31.69,0.001164518
65.391053,0.067384,-0.229824,-0.26334,-9.82737,-9.833584,0.003195,-0.00639,0.00426,97512.83,31.69,-0.008962482
65.462029,0.070976,-0.241794,-0.232218,-9.796248,-9.801983,0.003195,-0.005325,0.00426,97508.7,31.7,0.022638518
65.53608,0.07405,-0.22743,-0.234612,-9.836946,-9.842371,0,-0.005325,0.00213,97516.96,31.7,-0.017749482
65.604499,0.06842,-0.213066,-0.26334,-9.82737,-9.833206,-0.001065,-0.00639,0.00426,97504.56,31.69,-0.008584482
65.677085,0.072586,-0.217854,-0.256158,-9.82737,-9.833121,0.00213,-0.00639,0.001065,97512.83,31.69,-0.008499482
65.749356,0.072271,-0.201096,-0.241794,-9.8154,-9.820437,0.003195,-0.00639,0.003195,97512.83,31.69,0.004184518
65.820349,0.070993,-0.229824,-0.260946,-9.829764,-9.835912,0.00426,-0.007455,0.003195,97504.56,31.69,-0.011290482
65.892605,0.072255,-0.225036,-0.253764,-9.817794,-9.823651,0.001065,-0.005325,0.003195,97508.7,31.69,0.000970518
65.96138,0.068776,-0.25137,-0.253764,-9.829764,-9.836251,0,-0.007455,0.003195,97516.96,31.69,-0.011629482
66.028649,0.067268,-0.234612,-0.241794,-9.813006,-9.818788,0.001065,-0.003195,0.001065,97512.83,31.69,0.005833518
66.09928,0.070631,-0.234612,-0.217854,-9.841734,-9.84694,0.001065,-0.00639,0.00213,97508.7,31.69,-0.022318482
66.169274,0.069995,-0.22743,-0.241794,-9.805824,-9.811441,0.003195,-0.00639,0.005325,97512.83,31.69,0.013180518
66.239849,0.070575,-0.201096,-0.232218,-9.820188,-9.824991,0.00213,-0.007455,0.003195,97508.7,31.69,-0.000369482
66.307713,0.067864,-0.217854,-0.25137,-9.817794,-9.823427,0.001065,-0.007455,0.003195,97508.7,31.69,0.001194518
66.375033,0.06732,-0.198702,-0.256158,-9.82737,-9.832716,0,-0.00639,0.003195,97508.7,31.69,-0.008094482
66.442074,0.067041,-0.19152,-0.237006,-9.817794,-9.822522,0.001065,-0.00426,0.00426,97508.7,31.69,0.002099518
66.510485,0.068411,-0.213066,-0.244188,-9.810612,-9.815963,0.00426,-0.00639,0.001065,97512.83,31.69,0.008658518
66.582358,0.071873,-0.229824,-0.265734,-9.796248,-9.802546,0.001065,-0.007455,0.003195,97521.1,31.69,0.022075518
66.654142,0.071783,-0.256158,-0.25137,-9.846522,-9.85306,0.00213,-0.00639,0.00426,97508.7,31.69,-0.028438482
66.722293,0.068151,-0.232218,-0.26334,-9.844128,-9.850387,0.00213,-0.005325,0.005325,97512.83,31.69,-0.025765482
66.790075,0.067783,-0.205884,-0.256158,-9.82737,-9.832864,0.001065,-0.00426,0.00213,97529.36,31.69,-0.008242482
66.866259,0.076184,-0.225036,-0.234612,-9.824976,-9.830353,0.001065,-0.005325,0.00213,97516.96,31.69,-0.005731482
66.937831,0.071571,-0.189126,-0.256158,-9.79146,-9.796636,0.00213,-0.00639,0,97508.7,31.68,0.027985518
67.007932,0.070101,-0.222642,-0.246582,-9.824976,-9.830591,0,-0.005325,0.001065,97512.83,31.69,-0.005969482
67.079126,0.071194,-0.21546,-0.25137,-9.820188,-9.825767,-0.001065,-0.00639,0.001065,97512.83,31.69,-0.001145482
67.147304,0.068178,-0.205884,-0.237006,-9.822582,-9.827598,-0.001065,-0.00426,0.003195,97504.56,31.68,-0.002976482
67.214403,0.0671,-0.22743,-0.229824,-9.834552,-9.839866,0,-0.003195,0,97512.83,31.69,-0.015244482
67.281579,0.067176,-0.205884,-0.258552,-9.82737,-9.832926,0.001065,-0.007455,0.003195,97512.83,31.69,-0.008304482
67.348755,0.067177,-0.217854,-0.256158,-9.810612,-9.816373,0.00213,-0.005325,0.003195,97512.83,31.69,0.008248518
67.415994,0.067239,-0.20349,-0.225036,-9.796248,-9.800945,0.001065,-0.005325,0.003195,97516.96,31.69,0.023676518
67.483071,0.067076,-0.193914,-0.234612,-9.82737,-9.832083,0.00213,-0.00639,0.001065,97508.7,31.69,-0.007461482
67.550008,0.066937,-0.21546,-0.26334,-9.813006,-9.818903,0.00426,-0.003195,0.003195,97512.83,31.69,0.005718518
67.617026,0.067019,-0.210672,-0.217854,-9.801036,-9.80572,0,-0.00639,0.00426,97512.83,31.69,0.018901518
67.684172,0.067146,-0.205884,-0.246582,-9.813006,-9.818262,0.003195,-0.005325,0.001065,97512.83,31.69,0.006359518
67.750883,0.06671,-0.20349,-0.268128,-9.817794,-9.823562,0.00213,-0.005325,0.00213,97504.56,31.68,0.001059518
67.817837,0.066954,-0.244188,-0.229824,-9.820188,-9.825912,0.001065,-0.00426,0.003195,97508.7,31.69,-0.001290482
67.884618,0.066782,-0.205884,-0.234612,-9.820188,-9.825147,0.00213,-0.005325,0.00426,97508.7,31.69,-0.000525482
67.951459,0.06684,-0.232218,-0.268128,-9.817794,-9.8242,0.003195,-0.005325,0.005325,97508.7,31.69,0.000421518
68.022905,0.071447,-0.21546,-0.256158,-9.8154,-9.821106,-0.001065,-0.005325,0.00213,97508.7,31.69,0.003515518
68.092541,0.069635,-0.20349,-0.222642,-9.834552,-9.839176,0,-0.00426,0.00213,97504.56,31.69,-0.014554482
68.163748,0.071207,-0.21546,-0.256158,-9.817794,-9.823498,0,-0.00426,0.005325,97525.23,31.68,0.001123518
68.232473,0.068726,-0.201096,-0.2394,-9.841734,-9.846699,0,-0.00639,0.003195,97512.83,31.68,-0.022077482
68.299226,0.066752,-0.232218,-0.265734,-9.801036,-9.807387,0.001065,-0.00426,0.00426,97512.83,31.69,0.017234518
68.369618,0.070393,-0.213066,-0.26334,-9.83934,-9.845169,0.001065,-0.00426,0.00426,97512.83,31.68,-0.020547482
68.43909,0.069472,-0.205884,-0.265734,-9.817794,-9.823547,0.00213,-0.00639,0.003195,97504.56,31.68,0.001074518
68.510343,0.071253,-0.184338,-0.270522,-9.844128,-9.849569,0.00213,-0.00639,0.005325,97529.36,31.68,-0.024947482
68.577807,0.067464,-0.217854,-0.201096,-9.813006,-9.817484,0.00213,-0.00426,0.00213,97500.43,31.68,0.007137518
68.644793,0.066986,-0.229824,-0.225036,-9.832158,-9.837418,0.003195,-0.007455,0.00213,97512.83,31.69,-0.012796482
68.711814,0.067021,-0.208278,-0.244188,-9.82737,-9.832609,0.00426,-0.00426,0.00213,97496.3,31.68,-0.007987482
68.779179,0.067364,-0.21546,-0.25137,-9.820188,-9.825767,0.001065,-0.00639,0.005325,97512.83,31.69,-0.001145482
68.846379,0.067201,-0.220248,-0.232218,-9.817794,-9.823009,0.001065,-0.003195,0.005325,97512.83,31.68,0.001612518
68.913413,0.067034,-0.246582,-0.270522,-9.834552,-9.841362,-0.00213,-0.005325,0.003195,97512.83,31.68,-0.016740482
68.980936,0.067523,-0.222642,-0.244188,-9.80343,-9.808998,0.001065,-0.00426,0.003195,97512.83,31.68,0.015623518
69.047997,0.067061,-0.220248,-0.253764,-9.824976,-9.83072,0.001065,-0.007455,0.00426,97504.56,31.68,-0.006098482
69.114378,0.066381,-0.20349,-0.2394,-9.841734,-9.846748,0.00213,-0.00639,0.00213,97500.43,31.68,-0.022126482
69.181568,0.06719,-0.21546,-0.25137,-9.82737,-9.832945,0.001065,-0.00852,0.00213,97512.83,31.69,-0.008323482
69.248744,0.067176,-0.210672,-0.237006,-9.82737,-9.832485,0.001065,-0.007455,0.00213,97504.56,31.69,-0.007863482
69.315749,0.067005,-0.205884,-0.268128,-9.829764,-9.835575,0.001065,-0.00426,0.00213,97516.96,31.68,-0.010953482
69.38404,0.068291,-0.229824,-0.25137,-9.841734,-9.847626,0.00213,-0.00426,0.003195,97512.83,31.68,-0.023004482
69.451358,0.067318,-0.248976,-0.229824,-9.813006,-9.818854,0.001065,-0.00639,0.003195,97508.7,31.69,0.005767518
69.522558,0.0712,-0.220248,-0.244188,-9.798642,-9.804158,0,-0.005325,0.00213,97516.96,31.68,0.020463518
69.593213,0.070655,-0.210672,-0.2394,-9.820188,-9.825364,0.00213,-0.00639,0.005325,97512.83,31.68,-0.000742482
69.660933,0.06772,-0.229824,-0.253764,-9.829764,-9.835724,0,-0.003195,0.00213,97508.7,31.68,-0.011102482
69.727804,0.066871,-0.196308,-0.241794,-9.82737,-9.832304,0.00213,-0.00639,0.003195,97516.96,31.69,-0.007682482
69.797222,0.069418,-0.225036,-0.244188,-9.8154,-9.821016,0.003195,-0.00426,0.001065,97516.96,31.68,0.003605518
69.864649,0.067426,-0.196308,-0.220248,-9.83934,-9.843762,0.001065,-0.00639,0.00213,97504.56,31.68,-0.019140482
69.931828,0.067179,-0.229824,-0.256158,-9.848916,-9.854927,0.001065,-0.007455,0.005325,97525.23,31.68,-0.030305482
69.999054,0.067226,-0.220248,-0.265734,-9.808218,-9.814289,0.00213,-0.00639,0.00426,97521.1,31.68,0.010332518
70.065753,0.066699,-0.237006,-0.217854,-9.82737,-9.832641,0.00213,-0.00639,0,97504.56,31.68,-0.008019482
70.133016,0.067263,-0.201096,-0.244188,-9.82737,-9.83246,0,-0.005325,0.005325,97504.56,31.68,-0.007838482
70.200084,0.067069,-0.208278,-0.272916,-9.817794,-9.823795,0.003195,-0.00639,0.00426,97512.83,31.68,0.000826518
70.267124,0.06704,-0.232218,-0.248976,-9.82737,-9.833266,0.003195,-0.00426,0.00639,97512.83,31.68,-0.008644482
70.334344,0.06722,-0.225036,-0.237006,-9.829764,-9.835196,0.00213,-0.00426,0.003195,97512.83,31.68,-0.010574482
70.40125,0.066906,-0.237006,-0.229824,-9.822582,-9.828128,0.003195,-0.00639,0.005325,97512.83,31.68,-0.003506482
70.468731,0.06748,-0.241794,-0.248976,-9.820188,-9.826319,0.00213,-0.00426,0.00213,97516.96,31.68,-0.001697482
70.535582,0.066851,-0.21546,-0.22743,-9.822582,-9.827577,0.003195,-0.00639,0.003195,97512.83,31.68,-0.002955482
70.602303,0.066721,-0.196308,-0.26334,-9.824976,-9.830465,0.001065,-0.005325,0.005325,97512.83,31.68,-0.005843482
70.670697,0.068395,-0.234612,-0.272916,-9.846522,-9.853097,0.001065,-0.007455,0.001065,97504.56,31.68,-0.028475482
70.740518,0.069821,-0.21546,-0.25137,-9.822582,-9.82816,0,-0.005325,0.003195,97516.96,31.69,-0.003538482
70.810383,0.069865,-0.205884,-0.225036,-9.832158,-9.836888,0,-0.00426,0.005325,97516.96,31.68,-0.012266482
70.882075,0.071692,-0.20349,-0.220248,-9.822582,-9.827158,0.001065,-0.00426,0.003195,97521.1,31.68,-0.002536482
70.950305,0.068229,-0.193914,-0.237006,-9.824976,-9.829747,0.00213,-0.00639,0.00426,97516.96,31.68,-0.005125482
71.021016,0.070711,-0.210672,-0.234612,-9.836946,-9.841998,0.003195,-0.00639,0.00426,97512.83,31.68,-0.017376482
71.094457,0.073441,-0.19152,-0.25137,-9.808218,-9.813308,0.00213,-0.00852,0.003195,97516.96,31.69,0.011313518
71.162375,0.067919,-0.213066,-0.241794,-9.856098,-9.861365,0.00213,-0.00639,0.00213,97512.83,31.68,-0.036743482
71.229725,0.06735,-0.234612,-0.277704,-9.808218,-9.814953,0.003195,-0.005325,0.001065,97500.43,31.68,0.009668518
71.296828,0.067103,-0.222642,-0.241794,-9.841734,-9.847221,-0.001065,-0.005325,0.005325,97512.83,31.68,-0.022599482
71.363873,0.067045,-0.201096,-0.241794,-9.8154,-9.820437,0.00213,-0.00852,0.00852,97521.1,31.68,0.004184518
71.431285,0.067412,-0.244188,-0.2394,-9.846522,-9.852458,0.00426,-0.00639,0.00426,97521.1,31.68,-0.027836482
71.498434,0.067148,-0.220248,-0.232218,-9.8154,-9.820617,-0.001065,-0.00639,0.00426,97516.96,31.67,0.004004518
71.564926,0.066493,-0.196308,-0.220248,-9.824976,-9.829405,0.00213,-0.00426,0.00426,97512.83,31.67,-0.004783482
71.631614,0.066688,-0.220248,-0.25137,-9.832158,-9.837836,0.001065,-0.00639,0.001065,97512.83,31.68,-0.013214482
71.699603,0.067989,-0.217854,-0.270522,-9.834552,-9.840684,-0.001065,-0.00426,0.00426,97516.96,31.68,-0.016062482
71.766844,0.067242,-0.220248,-0.232218,-9.832158,-9.837366,0.001065,-0.00639,0.001065,97508.7,31.68,-0.012744482
71.834293,0.067448,-0.208278,-0.25137,-9.82737,-9.83279,0.00213,-0.00639,0.005325,97512.83,31.68,-0.008168482
71.901018,0.066726,-0.232218,-0.248976,-9.820188,-9.826088,-0.001065,-0.005325,-0.001065,97504.56,31.67,-0.001466482
71.967652,0.066634,-0.232218,-0.22743,-9.853704,-9.859063,0.003195,-0.005325,0.00213,97516.96,31.68,-0.034441482
72.034319,0.066667,-0.20349,-0.225036,-9.834552,-9.839231,0.00213,-0.00639,0.005325,97504.56,31.68,-0.014609482
72.10207,0.067751,-0.205884,-0.25137,-9.808218,-9.813598,0.00213,-0.005325,0.00426,97516.96,31.68,0.011023518
72.169065,0.066995,-0.237006,-0.256158,-9.817794,-9.823994,0.00213,-0.005325,0.00426,97516.96,31.68,0.000627518
72.236125,0.06706,-0.222642,-0.248976,-9.834552,-9.840222,0.003195,-0.007455,0.00426,97512.83,31.68,-0.015600482
72.307247,0.071122,-0.210672,-0.248976,-9.856098,-9.861493,0.001065,-0.003195,0.00426,97512.83,31.68,-0.036871482
72.381274,0.074027,-0.213066,-0.265734,-9.820188,-9.826093,0.003195,-0.005325,0.00639,97512.83,31.67,-0.001471482
72.448801,0.067527,-0.193914,-0.272916,-9.80343,-9.809145,0.00426,-0.00426,0.005325,97508.7,31.67,0.015476518
72.519474,0.070673,-0.241794,-0.234612,-9.817794,-9.823573,-0.001065,-0.00639,0.003195,97521.1,31.67,0.001048518
72.593391,0.073917,-0.196308,-0.241794,-9.8154,-9.82034,0.003195,-0.00426,0.003195,97525.23,31.68,0.004281518
72.660566,0.067175,-0.217854,-0.258552,-9.805824,-9.811651,-0.001065,-0.00639,0.00213,97521.1,31.68,0.012970518
72.732321,0.071755,-0.205884,-0.237006,-9.82737,-9.832383,0.001065,-0.00426,0.00426,97512.83,31.67,-0.007761482
72.806211,0.07389,-0.246582,-0.22743,-9.83934,-9.845057,0.00213,-0.007455,0.00213,97516.96,31.68,-0.020435482
72.873608,0.067396,-0.205884,-0.229824,-9.798642,-9.803499,0.001065,-0.00639,0.003195,97512.83,31.68,0.021122518
72.940912,0.067305,-0.220248,-0.270522,-9.796248,-9.802457,0.003195,-0.00639,0.005325,97533.5,31.68,0.022164518
73.007622,0.066709,-0.220248,-0.248976,-9.834552,-9.840168,0.003195,-0.007455,0.00426,97525.23,31.68,-0.015546482
73.074872,0.06725,-0.241794,-0.241794,-9.824976,-9.830925,0.001065,-0.005325,0.00213,97512.83,31.68,-0.006303482
73.141776,0.066904,-0.205884,-0.241794,-9.841734,-9.846856,0.00213,-0.00639,0.005325,97508.7,31.68,-0.022234482
