time,dt,accel_x,accel_y,accel_z,union_g,gyro_x,gyro_y,gyro_z,pressure,temp,ag
378.8708,0.020087,-0.05985,0.002394,-9.870462,-9.870644,0,-0.003195,0.00213,99127.86,30.45,-0.046644
378.890883,0.020083,-0.026334,-0.028728,-9.865674,-9.865751,0.003195,-0.005325,0.003195,99127.86,30.45,-0.041751
378.911007,0.020125,-0.040698,0.050274,-9.83934,-9.839553,0,-0.00852,0.003195,99127.86,30.45,-0.015553
378.931237,0.020229,-0.043092,-0.033516,-9.793854,-9.794006,0.001065,-0.00852,0.001065,99127.86,30.45,0.029994
378.951392,0.020155,-0.067032,0.055062,-9.848916,-9.849298,0.00213,-0.007455,0.003195,99127.86,30.45,-0.025298
378.971519,0.020127,-0.100548,0.009576,-9.834552,-9.835071,-0.001065,-0.00426,0.001065,99127.86,30.45,-0.011071
378.99162,0.020101,-0.076608,-0.03591,-9.824976,-9.82534,0.003195,-0.00426,0.00213,99127.86,30.45,-0.00134
379.011722,0.020102,-0.090972,0.038304,-9.87525,-9.875743,0.001065,-0.005325,0.001065,99127.89,30.45,-0.051743
379.031814,0.020092,-0.062244,-0.040698,-9.793854,-9.794136,0,-0.00426,0.003195,99127.89,30.45,0.029864
379.051894,0.02008,-0.052668,-0.04788,-9.877644,-9.8779,0.001065,-0.00852,0.003195,99127.89,30.45,-0.0539
379.071999,0.020105,-0.07182,0.016758,-9.865674,-9.86595,0.001065,-0.005325,0.005325,99127.89,30.45,-0.04195
379.092095,0.020096,-0.086184,-0.019152,-9.82737,-9.827767,0,-0.00426,0.003195,99127.89,30.45,-0.003767
379.112397,0.020302,-0.069426,-0.01197,-9.829764,-9.830016,0.005325,-0.00426,0.00213,99127.89,30.45,-0.006016
379.132493,0.020096,-0.043092,0.01197,-9.88722,-9.887321,0.001065,-0.007455,0.007455,99127.98,30.45,-0.063321
379.152585,0.020092,-0.057456,0.019152,-9.829764,-9.829951,0.001065,-0.00639,0.003195,99127.98,30.45,-0.005951
379.172677,0.020092,-0.028728,0.009576,-9.836946,-9.836993,0.00426,-0.007455,0.00426,99127.98,30.45,-0.012993
379.192778,0.0201,-0.062244,0.009576,-9.86328,-9.863481,0.00426,-0.00852,0.003195,99127.98,30.45,-0.039481
379.212873,0.020095,-0.069426,-0.004788,-9.846522,-9.846768,0.00426,-0.00426,0.003195,99127.98,30.45,-0.022768
379.233401,0.020528,-0.021546,0.028728,-9.858492,-9.858557,0.001065,-0.00639,0.00426,99127.98,30.45,-0.034557
379.253488,0.020087,-0.076608,-0.028728,-9.76752,-9.767863,0,-0.00639,0.003195,99127.94,30.45,0.056137
379.273582,0.020095,-0.093366,0.026334,-9.868068,-9.868545,0.00213,-0.005325,-0.001065,99127.94,30.45,-0.044545
379.293672,0.020089,-0.112518,0.004788,-9.834552,-9.835197,-0.001065,-0.007455,0.00426,99127.94,30.45,-0.011197
379.313788,0.020117,-0.086184,-0.004788,-9.801036,-9.801416,0.001065,-0.00639,0.00213,99127.94,30.45,0.022584
379.3344,0.020611,-0.105336,0.031122,-9.853704,-9.854316,0.001065,-0.005325,0.001065,99127.94,30.45,-0.030316
379.356256,0.021856,-0.090972,-0.016758,-9.836946,-9.837381,0.00213,-0.00639,0.00639,99128.07,30.45,-0.013381
379.37634,0.020084,-0.057456,0.026334,-9.846522,-9.846725,0.00213,-0.007455,0.00426,99128.07,30.45,-0.022725
379.396435,0.020095,-0.045486,-0.016758,-9.801036,-9.801156,0.001065,-0.009585,-0.001065,99128.07,30.45,0.022844
379.416553,0.020118,-0.067032,-0.021546,-9.8154,-9.815653,0.00213,-0.005325,0.005325,99128.07,30.45,0.008347
379.436666,0.020113,-0.038304,0.009576,-9.870462,-9.870541,0.001065,-0.007455,0.005325,99128.07,30.45,-0.046541
379.456852,0.020186,-0.04788,-0.05985,-9.796248,-9.796548,0,-0.00639,0.00213,99128.07,30.45,0.027452
379.476943,0.02009,-0.074214,-0.016758,-9.83934,-9.839634,0.00213,-0.00639,0.001065,99127.97,30.45,-0.015634
379.497137,0.020194,-0.064638,0.019152,-9.865674,-9.865904,0.001065,-0.007455,0.00213,99127.97,30.45,-0.041904
379.517296,0.02016,-0.052668,-0.026334,-9.822582,-9.822758,0.003195,-0.007455,0.003195,99127.97,30.45,0.001242
379.537379,0.020082,-0.038304,0.014364,-9.83934,-9.839425,0.003195,-0.00213,0.00213,99127.97,30.45,-0.015425
379.55767,0.020291,-0.067032,0.014364,-9.868068,-9.868306,0.001065,-0.01278,0.003195,99127.97,30.45,-0.044306
379.577837,0.020167,-0.07182,0.02394,-9.882432,-9.882722,0.003195,-0.003195,0.003195,99128.19,30.45,-0.058722
379.597941,0.020104,-0.093366,0.019152,-9.836946,-9.837408,0.003195,-0.005325,0.00213,99128.19,30.45,-0.013408
379.618031,0.02009,-0.07182,-0.004788,-9.82737,-9.827634,0,-0.007455,0.001065,99128.19,30.45,-0.003634
379.638132,0.020101,-0.098154,-0.014364,-9.805824,-9.806326,0.003195,-0.00426,0.005325,99128.19,30.45,0.017674
379.658822,0.02069,-0.086184,0.033516,-9.82737,-9.827805,0.00213,-0.007455,0.00426,99128.19,30.45,-0.003805
379.680557,0.021735,-0.057456,-0.045486,-9.772308,-9.772583,0.003195,-0.00213,0.00213,99128.19,30.45,0.051417
379.70066,0.020103,-0.088578,0.031122,-9.817794,-9.818243,0.001065,-0.00426,0.00213,99128.32,30.45,0.005757
379.720791,0.020131,-0.064638,0.007182,-9.853704,-9.853919,0.001065,-0.003195,0.003195,99128.32,30.45,-0.029919
379.740877,0.020086,-0.055062,-0.007182,-9.813006,-9.813163,0.003195,-0.005325,0.001065,99128.32,30.45,0.010837
379.76105,0.020173,-0.067032,0.019152,-9.88722,-9.887466,0.001065,-0.00852,0.003195,99128.32,30.45,-0.063466
379.781343,0.020293,-0.04788,-0.02394,-9.829764,-9.82991,0.007455,-0.005325,0.00426,99128.32,30.45,-0.00591
379.801434,0.020091,-0.057456,0.004788,-9.844128,-9.844297,0.001065,-0.005325,0.003195,99128.32,30.45,-0.020297
379.821554,0.02012,-0.05985,0.045486,-9.865674,-9.86596,0.001065,-0.00426,0.00426,99128.48,30.45,-0.04196
379.841656,0.020102,-0.064638,-0.045486,-9.79146,-9.791779,0.00213,-0.00213,0.003195,99128.48,30.45,0.032221
379.861774,0.020119,-0.07182,-0.016758,-9.865674,-9.86595,0.001065,-0.007455,0.001065,99128.48,30.45,-0.04195
379.881952,0.020178,-0.067032,-0.03591,-9.80343,-9.803725,0.00213,-0.00852,0.00213,99128.48,30.45,0.020275
379.902059,0.020107,-0.067032,0.007182,-9.856098,-9.856329,0,-0.003195,0.001065,99128.48,30.45,-0.032329
379.922151,0.020093,-0.102942,0.002394,-9.846522,-9.84706,0,-0.00639,0.00213,99128.48,30.45,-0.02306
379.942239,0.020088,-0.07182,-0.021546,-9.805824,-9.806111,0.00213,-0.00213,0.001065,99128.48,30.45,0.017889
379.962555,0.020316,-0.09576,0.03591,-9.848916,-9.849447,0.001065,-0.005325,0.003195,99128.48,30.45,-0.025447
379.983104,0.020549,-0.076608,0.016758,-9.836946,-9.837259,0.003195,-0.00639,0.003195,99128.48,30.45,-0.013259
380.004976,0.021872,-0.079002,-0.016758,-9.805824,-9.806157,0.003195,-0.00639,0.00213,99128.48,30.45,0.017843
380.025064,0.020088,-0.081396,0.01197,-9.83934,-9.839684,0.00213,-0.00639,0.005325,99128.48,30.45,-0.015684
380.045164,0.020101,-0.052668,-0.009576,-9.817794,-9.81794,0,-0.003195,0,99128.6,30.45,0.00606
380.065326,0.020162,-0.040698,-0.033516,-9.87525,-9.875391,0.003195,-0.00426,0.00426,99128.6,30.45,-0.051391
380.085414,0.020088,-0.028728,0.026334,-9.83934,-9.839417,0.001065,-0.007455,0.003195,99128.6,30.45,-0.015417
380.105656,0.020242,-0.050274,-0.01197,-9.824976,-9.825112,0.003195,-0.00426,0.00426,99128.6,30.45,-0.001112
380.12574,0.020085,-0.069426,0.01197,-9.860886,-9.861138,0,-0.00426,0.005325,99128.6,30.45,-0.037138
380.145866,0.020126,-0.067032,-0.031122,-9.83934,-9.839618,0.003195,-0.00639,0.001065,99128.6,30.45,-0.015618
380.166091,0.020225,-0.076608,-0.031122,-9.805824,-9.806173,-0.001065,-0.003195,0.00426,99128.76,30.45,0.017827
380.186176,0.020085,-0.067032,-0.009576,-9.844128,-9.844361,0,-0.00639,0.00213,99128.76,30.45,-0.020361
380.206388,0.020212,-0.079002,-0.016758,-9.808218,-9.80855,0.00213,-0.005325,0.00213,99128.76,30.45,0.01545
380.226507,0.020119,-0.07182,-0.004788,-9.834552,-9.834815,0.001065,-0.005325,0.001065,99128.76,30.45,-0.010815
380.246595,0.020087,-0.069426,0.03591,-9.872856,-9.873165,0.003195,-0.005325,0.005325,99128.76,30.45,-0.049165
380.26673,0.020135,-0.057456,-0.033516,-9.8154,-9.815625,0.00426,-0.003195,0,99128.82,30.45,0.008375
380.286848,0.020118,-0.09576,0.01197,-9.841734,-9.842207,0.00213,-0.005325,0.001065,99128.82,30.45,-0.018207
380.307181,0.020333,-0.081396,-0.028728,-9.822582,-9.822961,0.003195,-0.00639,0.00426,99128.82,30.45,0.001039
380.329306,0.022125,-0.074214,0.019152,-9.844128,-9.844426,0.00426,-0.005325,0.00213,99128.82,30.45,-0.020426
380.349395,0.020089,-0.062244,0.007182,-9.86328,-9.863479,0.00213,-0.007455,0.003195,99128.82,30.45,-0.039479
380.369587,0.020192,-0.057456,-0.03591,-9.820188,-9.820422,0.001065,-0.005325,0.003195,99128.82,30.45,0.003578
380.389672,0.020085,-0.067032,0.01197,-9.870462,-9.870697,0.00213,-0.00213,0.00213,99128.87,30.45,-0.046697
380.409766,0.020094,-0.055062,-0.031122,-9.8154,-9.815604,0.001065,-0.00852,0.003195,99128.87,30.45,0.008396
380.429993,0.020227,-0.04788,-0.02394,-9.808218,-9.808364,0.00213,-0.005325,0.003195,99128.87,30.45,0.015636
380.450123,0.020131,-0.05985,-0.01197,-9.85131,-9.851499,0,-0.005325,0.00426,99128.87,30.45,-0.027499
380.470209,0.020086,-0.033516,-0.031122,-9.8154,-9.815507,0.001065,-0.003195,0.001065,99128.87,30.45,0.008493
380.4903,0.020091,-0.050274,-0.026334,-9.805824,-9.805988,0.00426,-0.00426,0.00213,99128.87,30.45,0.018012
380.510408,0.020108,-0.074214,0.007182,-9.86328,-9.863562,0.00426,-0.007455,0.00213,99129,30.45,-0.039562
380.530771,0.020363,-0.055062,-0.016758,-9.808218,-9.808387,0.001065,-0.003195,0.00213,99129,30.45,0.015613
380.550859,0.020088,-0.07182,0.014364,-9.889614,-9.889885,0.001065,-0.00852,0.005325,99129,30.45,-0.065885
380.570964,0.020105,-0.09576,-0.02394,-9.822582,-9.823078,0.00213,-0.00852,0.00426,99129,30.45,0.000922
380.591094,0.020131,-0.050274,0.014364,-9.83934,-9.839479,0,-0.00213,0.00213,99129,30.45,-0.015479
380.611189,0.020094,-0.05985,0.019152,-9.865674,-9.865874,0,-0.00852,0.003195,99128.94,30.45,-0.041874
380.631288,0.0201,-0.052668,-0.026334,-9.796248,-9.796425,0.00213,-0.00426,0.00213,99128.94,30.45,0.027575
380.651369,0.020081,-0.069426,-0.01197,-9.829764,-9.830016,-0.001065,-0.007455,0.00213,99128.94,30.45,-0.006016
380.671536,0.020167,-0.055062,0.021546,-9.836946,-9.837124,0.00213,-0.00639,0.00426,99128.94,30.45,-0.013124
380.691654,0.020118,-0.069426,-0.02394,-9.789066,-9.789341,0.001065,-0.00639,0.005325,99128.94,30.45,0.034659
380.711742,0.020089,-0.08379,0.033516,-9.848916,-9.849329,0.001065,-0.005325,0.00426,99128.94,30.45,-0.025329
380.731921,0.020178,-0.069426,-0.002394,-9.829764,-9.830009,0.001065,-0.005325,0.005325,99129.11,30.45,-0.006009
380.752009,0.020088,-0.062244,0.028728,-9.846522,-9.846761,0,-0.005325,0.00426,99129.11,30.45,-0.022761
380.772118,0.020109,-0.057456,0.021546,-9.860886,-9.861077,0.003195,-0.007455,0.003195,99129.11,30.45,-0.037077
380.792202,0.020084,-0.052668,-0.026334,-9.824976,-9.825152,0.001065,-0.00852,0.001065,99129.11,30.45,-0.001152
380.812289,0.020087,-0.038304,-0.019152,-9.829764,-9.829857,0.005325,-0.00639,0.00426,99129.11,30.45,-0.005857
380.832649,0.020361,-0.04788,0.016758,-9.817794,-9.817925,0.00213,-0.007455,0.005325,99129.11,30.45,0.006075
380.852807,0.020158,-0.057456,-0.002394,-9.83934,-9.839508,0.003195,-0.00426,0,99129.21,30.45,-0.015508
380.872906,0.020099,-0.040698,0.03591,-9.894402,-9.894551,0.003195,-0.005325,0.005325,99129.21,30.45,-0.070551
380.892992,0.020086,-0.079002,-0.019152,-9.80343,-9.803767,0.003195,-0.00852,0.00213,99129.21,30.45,0.020233
380.913079,0.020088,-0.040698,0,-9.836946,-9.83703,0.00213,-0.00426,0.00426,99129.21,30.45,-0.01303
380.933409,0.02033,-0.079002,0.026334,-9.83934,-9.839692,0.001065,-0.005325,0.001065,99129.21,30.45,-0.015692
380.953523,0.020114,-0.062244,-0.021546,-9.793854,-9.794075,0.001065,-0.003195,0.00213,99129.21,30.45,0.029925
380.973613,0.020089,-0.07182,-0.002394,-9.836946,-9.837208,0.00213,-0.003195,0.003195,99129.21,30.45,-0.013208
380.993701,0.020088,-0.079002,0.007182,-9.868068,-9.868387,0.001065,-0.00426,0.00426,99129.21,30.45,-0.044387
381.013802,0.020101,-0.050274,-0.021546,-9.8154,-9.815552,0.003195,-0.00426,0.001065,99129.21,30.45,0.008448
381.033989,0.020187,-0.064638,0.019152,-9.844128,-9.844359,0.003195,-0.005325,0.00213,99129.21,30.45,-0.020359
381.054076,0.020087,-0.067032,-0.043092,-9.808218,-9.808542,0,-0.00213,0.00213,99129.21,30.45,0.015458
381.074186,0.02011,-0.100548,-0.028728,-9.77949,-9.780049,0.001065,-0.00639,0.00426,99129.19,30.45,0.043951
381.094306,0.020119,-0.074214,0.019152,-9.860886,-9.861184,0.003195,-0.00426,0,99129.19,30.45,-0.037184
381.114409,0.020104,-0.074214,-0.002394,-9.836946,-9.837226,0.00426,-0.005325,0.00213,99129.19,30.45,-0.013226
381.134683,0.020274,-0.057456,0.026334,-9.834552,-9.834755,0.003195,-0.00426,0.003195,99129.19,30.45,-0.010755
381.15478,0.020097,-0.062244,-0.014364,-9.817794,-9.818002,0,-0.00852,0.001065,99129.19,30.45,0.005998
381.174868,0.020087,-0.090972,-0.004788,-9.844128,-9.84455,0.003195,-0.005325,0.00426,99129.5,30.45,-0.02055
381.194984,0.020116,-0.081396,-0.02394,-9.848916,-9.849281,0.005325,-0.00426,0.00213,99129.5,30.45,-0.025281
381.215094,0.02011,-0.07182,0.007182,-9.8154,-9.815665,0,-0.005325,0.003195,99129.5,30.45,0.008335
381.235406,0.020312,-0.057456,-0.028728,-9.817794,-9.818004,0.003195,-0.003195,0.00213,99129.5,30.45,0.005996
381.255491,0.020085,-0.079002,0.02394,-9.858492,-9.858838,-0.001065,-0.005325,0.00426,99129.5,30.45,-0.034838
381.275582,0.020091,-0.05985,-0.033516,-9.822582,-9.822822,0.001065,-0.00426,0.00639,99129.5,30.45,0.001178
381.295676,0.020094,-0.062244,0.007182,-9.82737,-9.82757,0.00213,-0.001065,0.001065,99129.63,30.45,-0.00357
381.315769,0.020093,-0.067032,0.02394,-9.85131,-9.851567,0.001065,-0.00426,0.003195,99129.63,30.45,-0.027567
381.335918,0.020149,-0.052668,-0.014364,-9.805824,-9.805976,0,-0.007455,0.001065,99129.63,30.45,0.018024
381.356029,0.02011,-0.040698,0.026334,-9.829764,-9.829884,0.001065,-0.007455,0.00213,99129.63,30.45,-0.005884
381.376138,0.02011,-0.079002,-0.009576,-9.858492,-9.858813,0,-0.005325,0.003195,99129.63,30.45,-0.034813
381.396226,0.020088,-0.062244,-0.019152,-9.832158,-9.832374,0.003195,-0.00426,0.003195,99129.63,30.45,-0.008374
381.416349,0.020123,-0.031122,0.040698,-9.880038,-9.880171,0.001065,-0.00639,0.003195,99129.76,30.45,-0.056171
381.436533,0.020185,-0.069426,0,-9.85131,-9.851555,0.001065,-0.00426,0.00213,99129.76,30.45,-0.027555
381.456616,0.020083,-0.057456,-0.009576,-9.872856,-9.873028,0.00426,-0.005325,0.00426,99129.76,30.45,-0.049028
381.476723,0.020107,-0.05985,0.03591,-9.856098,-9.856345,0.001065,-0.007455,0.00426,99129.76,30.45,-0.032345
381.496837,0.020113,-0.067032,-0.016758,-9.82737,-9.827613,0.00213,-0.00426,0.003195,99129.76,30.45,-0.003613
381.516931,0.020095,-0.062244,-0.009576,-9.870462,-9.870663,0.001065,-0.005325,0.003195,99129.76,30.45,-0.046663
381.537348,0.020416,-0.074214,-0.007182,-9.793854,-9.794138,0.001065,-0.007455,0.00213,99129.85,30.45,0.029862
381.55743,0.020082,-0.098154,-0.021546,-9.813006,-9.813521,0.003195,-0.00639,0.00213,99129.85,30.45,0.010479
381.577515,0.020085,-0.090972,0.01197,-9.870462,-9.870888,0.001065,-0.005325,0.00426,99129.85,30.45,-0.046888
381.597608,0.020094,-0.093366,-0.004788,-9.820188,-9.820633,0.00213,-0.005325,0.003195,99129.85,30.45,0.003367
381.617704,0.020096,-0.062244,0.002394,-9.813006,-9.813204,0.00426,-0.005325,0.003195,99129.85,30.45,0.010796
381.638833,0.021128,-0.062244,0.033516,-9.86328,-9.863533,0.00213,-0.005325,0.003195,99129.73,30.45,-0.039533
381.660331,0.021498,-0.07182,-0.004788,-9.834552,-9.834815,0.003195,-0.00213,0.003195,99129.73,30.45,-0.010815
381.680428,0.020097,-0.081396,0.019152,-9.870462,-9.870816,0.001065,-0.00639,0.003195,99129.73,30.45,-0.046816
381.700518,0.02009,-0.076608,0.01197,-9.781884,-9.782191,0.001065,-0.007455,0.00426,99129.73,30.45,0.041809
381.720634,0.020116,-0.05985,-0.014364,-9.832158,-9.832351,0.00213,-0.005325,0.00213,99129.73,30.45,-0.008351
381.740734,0.0201,-0.07182,-0.019152,-9.856098,-9.856378,0.00213,-0.007455,0.00213,99129.73,30.45,-0.032378
381.761071,0.020336,-0.062244,-0.033516,-9.808218,-9.808473,0.00213,-0.00639,0.00213,99129.79,30.45,0.015527
381.783321,0.02225,-0.057456,0.004788,-9.877644,-9.877812,0.003195,-0.00852,0.003195,99129.79,30.45,-0.053812
381.80343,0.020109,-0.045486,-0.009576,-9.786672,-9.786782,0.003195,-0.005325,0.005325,99129.79,30.45,0.037218
381.823564,0.020134,-0.04788,-0.028728,-9.832158,-9.832317,0.003195,-0.00426,0.003195,99129.79,30.45,-0.008317
381.843663,0.020099,-0.090972,0.026334,-9.820188,-9.820645,0.001065,-0.00639,0.00426,99129.79,30.45,0.003355
381.864,0.020337,-0.07182,0.002394,-9.817794,-9.818057,0.00213,-0.003195,0.00213,99129.61,30.45,0.005943
381.884524,0.020524,-0.064638,0.021546,-9.889614,-9.889849,0,-0.005325,0.003195,99129.61,30.45,-0.065849
381.906397,0.021873,-0.076608,-0.019152,-9.810612,-9.81093,0,-0.00213,0.001065,99129.61,30.45,0.01307
381.926493,0.020096,-0.081396,0.016758,-9.868068,-9.868418,0.003195,-0.005325,0.00426,99129.61,30.45,-0.044418
381.946602,0.020109,-0.064638,0.043092,-9.85131,-9.851616,0.00213,-0.00852,0.00213,99129.61,30.45,-0.027616
381.9667,0.020098,-0.05985,-0.016758,-9.793854,-9.794051,0.003195,-0.00426,0.00213,99129.61,30.45,0.029949
381.986808,0.020108,-0.04788,-0.038304,-9.82737,-9.827561,0.001065,-0.007455,0.005325,99129.71,30.45,-0.003561
382.00703,0.020222,-0.057456,0.016758,-9.80343,-9.803613,0,-0.009585,0.003195,99129.71,30.45,0.020387
382.027132,0.020102,-0.05985,0.004788,-9.848916,-9.849099,0.00213,-0.003195,0.00213,99129.71,30.45,-0.025099
382.047217,0.020085,-0.045486,-0.009576,-9.85131,-9.85142,0.001065,-0.00426,0.00426,99129.71,30.45,-0.02742
382.06732,0.020103,-0.043092,-0.004788,-9.79146,-9.791556,0.00213,-0.00639,0.003195,99129.71,30.45,0.032444
382.087497,0.020177,-0.067032,0.045486,-9.79146,-9.791795,0.00213,-0.00426,0.00213,99129.71,30.45,0.032205
382.10767,0.020174,0,0.004788,-9.817794,-9.817795,0.001065,-0.005325,0.00213,99129.52,30.45,0.006205
382.127771,0.020101,-0.055062,0.026334,-9.79146,-9.79165,-0.001065,-0.00426,0.003195,99129.52,30.45,0.03235
382.147867,0.020096,0.016758,0.165186,-9.870462,-9.871858,-0.00213,-0.007455,0.003195,99129.52,30.45,-0.047858
382.167966,0.020099,0.03591,0.050274,-9.920736,-9.920928,-0.003195,-0.005325,0.003195,99129.52,30.45,-0.096928
382.188072,0.020106,-0.086184,-0.076608,-9.903978,-9.904649,0.001065,-0.00213,0.005325,99129.52,30.45,-0.080649
382.208366,0.020294,-0.07182,0.014364,-9.824976,-9.825249,-0.001065,-0.003195,0.005325,99129.64,30.45,-0.001249
382.228466,0.0201,-0.064638,-0.016758,-9.65979,-9.660021,0.00213,-0.005325,0.00639,99129.64,30.45,0.163979
382.248604,0.020139,-0.100548,-0.040698,-9.702882,-9.703488,0.003195,-0.00426,0.00639,99129.64,30.45,0.120512
382.268716,0.020112,-0.09576,-0.014364,-9.87525,-9.875725,0.00213,-0.00852,0.00639,99129.64,30.45,-0.051725
382.288831,0.020115,-0.148428,-0.067032,-9.918342,-9.919679,0.001065,-0.003195,0.003195,99129.64,30.45,-0.095679
382.309239,0.020408,-0.148428,-0.028728,-9.882432,-9.883588,0.003195,-0.007455,0.001065,99129.64,30.45,-0.059588
382.331337,0.022099,-0.136458,-0.076608,-9.774702,-9.775955,0.00213,-0.00852,0.00213,99129.56,30.45,0.048045
382.351434,0.020097,-0.086184,-0.019152,-9.76752,-9.767919,0,-0.007455,0.003195,99129.56,30.45,0.056081
382.371542,0.020107,-0.093366,0.014364,-9.841734,-9.842187,0.001065,-0.00639,0.003195,99129.56,30.45,-0.018187
382.391626,0.020085,-0.079002,-0.07182,-9.889614,-9.89019,0.001065,-0.00852,0.001065,99129.56,30.45,-0.06619
382.41172,0.020093,-0.064638,0.016758,-9.88722,-9.887445,0.003195,-0.007455,0.003195,99129.56,30.45,-0.063445
382.432008,0.020289,-0.057456,-0.01197,-9.829764,-9.829939,0.00213,-0.007455,0.003195,99129.42,30.44,-0.005939
382.452113,0.020104,-0.01197,-0.02394,-9.796248,-9.796285,0.003195,-0.005325,-0.00213,99129.42,30.44,0.027715
382.472205,0.020092,-0.004788,0.02394,-9.880038,-9.880068,0.00213,-0.009585,0.00213,99129.42,30.44,-0.056068
382.492313,0.020108,-0.033516,-0.01197,-9.884826,-9.88489,0.00213,-0.005325,0.00213,99129.42,30.44,-0.06089
382.512411,0.020098,-0.01197,-0.009576,-9.834552,-9.834564,0.00213,-0.00639,0.001065,99129.42,30.44,-0.010564
382.532697,0.020286,-0.016758,0.043092,-9.77949,-9.779599,-0.001065,-0.005325,0.00213,99129.42,30.44,0.044401
382.552787,0.02009,-0.045486,0.026334,-9.772308,-9.772449,0.00213,-0.00639,0.00426,99129.4,30.45,0.051551
382.572881,0.020095,-0.026334,0.07182,-9.882432,-9.882728,0,-0.005325,0.00213,99129.4,30.45,-0.058728
382.592972,0.02009,-0.055062,0.03591,-9.86328,-9.863499,0.001065,-0.00852,0.00213,99129.4,30.45,-0.039499
382.613092,0.02012,-0.08379,0.021546,-9.836946,-9.837326,0.001065,-0.005325,0.003195,99129.4,30.45,-0.013326
382.633392,0.0203,-0.09576,0.033516,-9.82737,-9.827894,0.001065,-0.00639,0.003195,99129.4,30.45,-0.003894
382.653477,0.020086,-0.079002,-0.02394,-9.793854,-9.794202,0.00213,-0.007455,0.00426,99129.4,30.45,0.029798
382.673568,0.02009,-0.09576,-0.028728,-9.836946,-9.837454,0.001065,-0.00639,0.00213,99129.29,30.44,-0.013454
382.693651,0.020084,-0.122094,-0.014364,-9.903978,-9.904741,0.00213,-0.00639,0.005325,99129.29,30.44,-0.080741
382.713717,0.020066,-0.086184,-0.067032,-9.801036,-9.801644,0.00213,-0.005325,0.001065,99129.29,30.44,0.022356
382.734044,0.020327,-0.076608,0.009576,-9.810612,-9.810916,0.005325,-0.00426,0.005325,99129.29,30.44,0.013084
382.754196,0.020152,-0.074214,-0.07182,-9.777096,-9.777641,0.001065,-0.00426,0.00213,99129.29,30.44,0.046359
382.774302,0.020106,-0.038304,-0.076608,-9.805824,-9.806198,0.00213,-0.003195,0.00213,99129.29,30.45,0.017802
382.794399,0.020097,-0.019152,-0.01197,-9.858492,-9.858518,0.00639,-0.01065,0.003195,99129.29,30.45,-0.034518
382.814502,0.020104,0.040698,-0.050274,-9.786672,-9.786886,0.00426,-0.00213,0.00426,99129.29,30.45,0.037114
382.83478,0.020278,-0.016758,0.03591,-9.99495,-9.995029,0.003195,-0.00426,0.00213,99129.29,30.45,-0.171029
382.854861,0.02008,-0.043092,0.081396,-9.913554,-9.913982,0.001065,-0.00852,0,99129.29,30.45,-0.089982
382.875012,0.020151,-0.040698,-0.004788,-9.669366,-9.669453,-0.001065,-0.005325,0.00213,99129.29,30.45,0.154547
382.89511,0.020098,-0.055062,0.062244,-9.777096,-9.777449,0.00213,-0.00639,0.003195,99129.31,30.44,0.046551
382.915215,0.020105,-0.117306,0.01197,-9.781884,-9.782595,0.00213,-0.00852,0.003195,99129.31,30.44,0.041405
382.935371,0.020156,-0.08379,-0.062244,-9.844128,-9.844681,0.001065,-0.00213,0.003195,99129.31,30.44,-0.020681
382.955457,0.020087,-0.088578,0.026334,-9.889614,-9.890046,0.001065,-0.009585,0.005325,99129.31,30.44,-0.066046
382.975545,0.020088,-0.110124,0,-9.798642,-9.799261,0.00426,-0.00426,0.003195,99129.31,30.44,0.024739
382.995652,0.020107,-0.134064,-0.016758,-9.769914,-9.770848,0.00426,-0.005325,0.003195,99129.31,30.44,0.053152
383.015753,0.020101,-0.122094,0.009576,-9.880038,-9.880797,0.00213,-0.005325,0.003195,99129.26,30.44,-0.056797
383.035967,0.020214,-0.110124,-0.057456,-9.884826,-9.885606,0,-0.003195,0.003195,99129.26,30.44,-0.061606
383.056054,0.020088,-0.052668,-0.002394,-9.91116,-9.9113,0,-0.007455,0.003195,99129.26,30.44,-0.0873
383.076211,0.020156,-0.069426,0.01197,-9.844128,-9.84438,-0.001065,-0.009585,0.00426,99129.26,30.44,-0.02038
383.096303,0.020093,-0.019152,-0.028728,-9.748368,-9.748429,0.001065,-0.00426,0.00213,99129.26,30.44,0.075571
383.116527,0.020224,-0.026334,-0.016758,-9.853704,-9.853753,0.001065,-0.00852,0.003195,99129.18,30.44,-0.029753
383.137084,0.020557,-0.026334,0.004788,-9.865674,-9.86571,0.00213,-0.005325,0.003195,99129.18,30.44,-0.04171
383.159019,0.021936,-0.021546,-0.016758,-9.884826,-9.884864,0.003195,-0.00639,0.00426,99129.18,30.44,-0.060864
383.179114,0.020095,-0.038304,0.016758,-9.784278,-9.784367,0,-0.007455,0.00213,99129.18,30.44,0.039633
383.199236,0.020122,-0.031122,-0.009576,-9.76752,-9.767574,0.00213,-0.005325,0.00426,99129.18,30.44,0.056426
383.219333,0.020097,-0.064638,0.040698,-9.846522,-9.846818,0.00213,-0.005325,0.00426,99129.18,30.44,-0.022818
383.239523,0.02019,-0.07182,0.04788,-9.860886,-9.861264,0.003195,-0.007455,0.00213,99129.31,30.44,-0.037264
383.259689,0.020166,-0.090972,0.01197,-9.836946,-9.837374,0.003195,-0.003195,0.00426,99129.31,30.44,-0.013374
383.279831,0.020142,-0.102942,0.016758,-9.786672,-9.787228,0.001065,-0.009585,0.00426,99129.31,30.44,0.036772
383.299915,0.020083,-0.100548,0.02394,-9.796248,-9.796793,0,-0.00426,0.00213,99129.31,30.44,0.027207
383.320021,0.020107,-0.055062,0.016758,-9.892008,-9.892175,0.003195,-0.005325,0.00213,99129.31,30.44,-0.068175
383.340227,0.020205,-0.090972,-0.009576,-9.841734,-9.842159,0,-0.00852,0.00213,99129.31,30.44,-0.018159
383.360854,0.020627,-0.045486,-0.028728,-9.822582,-9.822729,0,-0.003195,0.00426,99129.45,30.44,0.001271
383.382752,0.021898,-0.043092,0.004788,-9.829764,-9.82986,0,-0.007455,0.00426,99129.45,30.44,-0.00586
383.402892,0.02014,-0.088578,-0.02394,-9.801036,-9.801465,0.00213,-0.00426,0.003195,99129.45,30.44,0.022535
383.422981,0.020089,-0.05985,-0.026334,-9.829764,-9.829981,0.00213,-0.00852,0.003195,99129.45,30.44,-0.005981
383.443094,0.020114,-0.10773,-0.007182,-9.894402,-9.894991,0,-0.01065,0.003195,99129.45,30.44,-0.070991
383.463294,0.0202,-0.069426,-0.040698,-9.901584,-9.901911,0.001065,-0.00426,0.001065,99129.63,30.44,-0.077911
383.483621,0.020327,-0.05985,0,-9.841734,-9.841916,0.00213,-0.00639,0,99129.63,30.44,-0.017916
383.505774,0.022153,-0.02394,-0.033516,-9.70767,-9.707757,0.001065,-0.00639,0.001065,99129.63,30.44,0.116243
383.525867,0.020093,-0.014364,0.019152,-9.762732,-9.762761,0.001065,-0.00639,0.003195,99129.63,30.44,0.061239
383.545964,0.020097,-0.069426,0.028728,-9.87525,-9.875536,0.001065,-0.00639,0.005325,99129.63,30.44,-0.051536
383.566063,0.020099,-0.050274,-0.009576,-9.89919,-9.899322,0.001065,-0.00213,-0.001065,99129.63,30.44,-0.075322
383.586155,0.020092,-0.05985,0.04788,-9.901584,-9.901881,-0.001065,-0.003195,0,99129.73,30.44,-0.077881
383.606534,0.020379,-0.004788,0.040698,-9.772308,-9.772394,0.00426,-0.00426,-0.001065,99129.73,30.44,0.051606
383.626626,0.020091,-0.052668,0.03591,-9.83934,-9.839546,0.001065,-0.003195,0.00213,99129.73,30.44,-0.015546
383.646722,0.020097,-0.10773,-0.004788,-9.877644,-9.878233,0,-0.00852,0.00213,99129.73,30.44,-0.054233
383.666837,0.020114,-0.069426,0.002394,-9.848916,-9.849161,0.001065,-0.001065,0.00213,99129.73,30.44,-0.025161
383.686945,0.020108,-0.069426,-0.050274,-9.870462,-9.870834,0.001065,-0.00639,0.005325,99129.73,30.44,-0.046834
383.707114,0.020169,-0.100548,0.004788,-9.76752,-9.768039,0,-0.005325,0.003195,99129.64,30.44,0.055961
383.727226,0.020112,-0.04788,-0.02394,-9.75555,-9.755697,0.001065,-0.005325,0.003195,99129.64,30.44,0.068303
383.747354,0.020128,-0.067032,-0.007182,-9.834552,-9.834783,0.001065,-0.00852,0.00426,99129.64,30.44,-0.010783
383.767476,0.020121,-0.079002,-0.021546,-9.80343,-9.803772,0.001065,-0.00639,0.003195,99129.64,30.44,0.020228
383.787677,0.020201,-0.079002,0.01197,-9.865674,-9.865998,0.00426,-0.00426,0.00426,99129.64,30.44,-0.041998
383.80818,0.020503,-0.081396,0.014364,-9.868068,-9.868414,0.003195,-0.007455,0.00426,99129.55,30.44,-0.044414
383.828292,0.020112,-0.052668,0.01197,-9.786672,-9.786821,0.001065,-0.00426,0.003195,99129.55,30.44,0.037179
383.848397,0.020105,-0.09576,0.040698,-9.868068,-9.868617,-0.001065,-0.005325,0.003195,99129.55,30.44,-0.044617
383.868662,0.020265,-0.057456,0.002394,-9.892008,-9.892175,0.001065,-0.00639,0.00213,99129.55,30.44,-0.068175
383.888796,0.020134,-0.05985,-0.040698,-9.844128,-9.844394,0.00426,-0.00426,0.001065,99129.55,30.44,-0.020394
383.909071,0.020275,-0.079002,0.002394,-9.841734,-9.842051,0.001065,-0.00852,0.00213,99129.55,30.44,-0.018051
383.929162,0.020091,-0.081396,-0.045486,-9.82737,-9.827812,0.003195,-0.007455,0.003195,99129.61,30.44,-0.003812
383.94949,0.020328,-0.08379,-0.093366,-9.841734,-9.842534,0.00213,-0.005325,0.00426,99129.61,30.44,-0.018534
383.969588,0.020099,-0.067032,-0.016758,-9.8154,-9.815643,0,-0.00852,0.003195,99129.61,30.44,0.008357
383.989904,0.020316,-0.019152,-0.02394,-9.82737,-9.827418,0.003195,-0.007455,0.005325,99129.61,30.44,-0.003418
384.010014,0.020109,-0.043092,0.03591,-9.832158,-9.832318,0.00213,-0.005325,0.00426,99129.61,30.44,-0.008318
384.031638,0.021625,-0.055062,0.002394,-9.860886,-9.86104,0,-0.00639,0.003195,99129.74,30.44,-0.03704
384.053887,0.022249,-0.064638,0.009576,-9.908766,-9.908981,0.001065,-0.00639,0.00213,99129.74,30.44,-0.084981
384.073969,0.020081,-0.040698,0.040698,-9.757944,-9.758114,0.00213,-0.007455,0.005325,99129.74,30.44,0.065886
384.094082,0.020113,-0.067032,0.069426,-9.865674,-9.866146,0.001065,-0.007455,0.001065,99129.74,30.44,-0.042146
384.114196,0.020114,-0.093366,-0.002394,-9.796248,-9.796693,0.00426,0,0.00426,99129.74,30.44,0.027307
384.13428,0.020084,-0.090972,0.019152,-9.789066,-9.789507,0.001065,-0.007455,0.005325,99129.74,30.44,0.034493
384.154846,0.020566,-0.138852,0.081396,-9.856098,-9.857412,-0.00213,-0.005325,0.001065,99129.73,30.44,-0.033412
384.17682,0.021975,-0.098154,-0.007182,-9.786672,-9.787167,0.00213,-0.00639,0.00213,99129.73,30.44,0.036833
384.196905,0.020084,-0.090972,-0.052668,-9.829764,-9.830326,0.00213,0,0.00213,99129.73,30.44,-0.006326
384.216987,0.020083,-0.158004,0.090972,-9.877644,-9.879327,0.001065,-0.00426,0.00213,99129.73,30.44,-0.055327
384.23709,0.020103,-0.050274,-0.057456,-9.846522,-9.846818,0.001065,-0.00639,0,99129.73,30.44,-0.022818
384.257786,0.020696,-0.031122,-0.07182,-9.870462,-9.870772,0.001065,-0.00426,0.00426,99129.73,30.44,-0.046772
384.277873,0.020087,-0.07182,0.007182,-9.824976,-9.825241,0.001065,-0.00639,0.00426,99130.08,30.44,-0.001241
384.299839,0.021965,-0.043092,-0.03591,-9.786672,-9.786833,0,-0.001065,0.00213,99130.08,30.44,0.037167
384.319933,0.020094,-0.043092,-0.004788,-9.810612,-9.810708,0.001065,-0.00639,0.003195,99130.08,30.44,0.013292
384.340035,0.020102,-0.067032,0.01197,-9.798642,-9.798879,0.001065,-0.00639,0.003195,99130.08,30.44,0.025121
384.36012,0.020085,-0.07182,-0.021546,-9.853704,-9.853989,0.00213,-0.00213,0.005325,99130.08,30.44,-0.029989
384.380221,0.020101,-0.081396,0.033516,-9.822582,-9.822976,0.00213,-0.005325,0.001065,99130.02,30.44,0.001024
384.400477,0.020257,-0.09576,0.016758,-9.79146,-9.791943,0.00639,-0.00426,0.003195,99130.02,30.44,0.032057
384.420576,0.020098,-0.093366,0.093366,-9.848916,-9.849801,0.003195,-0.003195,0.005325,99130.02,30.44,-0.025801
384.440667,0.020092,-0.10773,0,-9.801036,-9.801628,0,-0.009585,0.00426,99130.02,30.44,0.022372
384.460809,0.020142,-0.09576,0.026334,-9.872856,-9.873356,0.001065,-0.005325,0.003195,99130.02,30.44,-0.049356
384.480927,0.020118,-0.081396,0.014364,-9.86328,-9.863626,0.001065,-0.00426,0.003195,99130.02,30.44,-0.039626
384.501155,0.020227,-0.086184,-0.04788,-9.796248,-9.796744,0,-0.007455,0.003195,99130.03,30.44,0.027256
384.521294,0.020139,-0.050274,0,-9.829764,-9.829893,0,-0.00639,0.00426,99130.03,30.44,-0.005893
384.541379,0.020085,-0.069426,-0.01197,-9.8154,-9.815653,0.001065,-0.00639,0.001065,99130.03,30.44,0.008347
384.561461,0.020082,-0.076608,-0.021546,-9.824976,-9.825298,0.003195,-0.00639,0.00213,99130.03,30.44,-0.001298
384.581541,0.02008,-0.088578,0.040698,-9.85131,-9.851792,0.00213,-0.00639,0.003195,99130.03,30.44,-0.027792
384.602145,0.020604,-0.081396,0.004788,-9.801036,-9.801375,0.00213,-0.00426,0.003195,99129.93,30.44,0.022625
384.622228,0.020083,-0.055062,-0.02394,-9.784278,-9.784462,0.003195,-0.005325,0.00213,99129.93,30.44,0.039538
384.642315,0.020087,-0.064638,0.031122,-9.870462,-9.870723,0.001065,-0.007455,0.005325,99129.93,30.44,-0.046723
384.662474,0.020159,-0.050274,0.002394,-9.793854,-9.793983,0.001065,-0.00639,0.00213,99129.93,30.44,0.030017
384.682607,0.020133,-0.045486,0.009576,-9.848916,-9.849026,-0.001065,-0.00639,0.001065,99129.93,30.44,-0.025026
384.703425,0.020818,-0.076608,-0.004788,-9.83934,-9.839639,0.00213,-0.00852,0.005325,99129.93,30.44,-0.015639
384.723529,0.020104,-0.102942,0.007182,-9.85131,-9.85185,0.001065,-0.009585,0.00213,99130.05,30.44,-0.02785
384.74366,0.020131,-0.07182,0.01197,-9.820188,-9.820458,-0.001065,-0.005325,0.00426,99130.05,30.44,0.003542
384.764232,0.020572,-0.050274,0.002394,-9.853704,-9.853833,0.00213,-0.005325,0.00213,99130.05,30.44,-0.029833
384.78433,0.020098,-0.079002,-0.07182,-9.80343,-9.804011,0.00213,-0.005325,0.003195,99130.05,30.44,0.019989
384.804437,0.020108,-0.057456,0.033516,-9.889614,-9.889838,-0.00213,-0.007455,0.00213,99130.05,30.44,-0.065838
384.824564,0.020126,-0.081396,-0.045486,-9.817794,-9.818237,0.003195,-0.003195,0.00426,99130.05,30.44,0.005763
384.844661,0.020097,-0.112518,-0.038304,-9.844128,-9.844846,0.003195,-0.00213,0.003195,99130.13,30.44,-0.020846
384.864768,0.020107,-0.081396,0.01197,-9.880038,-9.880381,0.001065,-0.00852,0.003195,99130.13,30.44,-0.056381
384.884889,0.020121,-0.050274,-0.01197,-9.76752,-9.767657,0.003195,-0.003195,0.00213,99130.13,30.44,0.056343
384.90508,0.020191,-0.069426,0.043092,-9.884826,-9.885164,-0.00213,-0.007455,0.00213,99130.13,30.44,-0.061164
384.925432,0.020352,-0.090972,0.01197,-9.80343,-9.803859,-0.001065,-0.007455,0.00426,99130.13,30.44,0.020141
384.945534,0.020102,-0.074214,-0.067032,-9.822582,-9.823091,0.005325,-0.00213,0.005325,99130.18,30.44,0.000909
384.96563,0.020096,-0.057456,0.021546,-9.82737,-9.827562,-0.00213,-0.007455,0,99130.18,30.44,-0.003562
384.985767,0.020138,-0.043092,0.016758,-9.796248,-9.796357,-0.00213,-0.00852,0.001065,99130.18,30.44,0.027643
385.005951,0.020183,-0.031122,0.019152,-9.877644,-9.877712,0.00426,-0.007455,0.003195,99130.18,30.44,-0.053712
385.026054,0.020103,-0.08379,-0.090972,-9.872856,-9.873631,0.001065,-0.007455,0.003195,99130.18,30.44,-0.049631
385.046142,0.020088,-0.064638,-0.031122,-9.817794,-9.818056,0.00426,-0.00639,0.00426,99130.18,30.44,0.005944
385.066263,0.020121,-0.038304,0.016758,-9.892008,-9.892096,0,-0.00639,0.001065,99130.24,30.44,-0.068096
385.086358,0.020095,-0.098154,-0.062244,-9.784278,-9.784968,0.003195,-0.007455,0.00639,99130.24,30.44,0.039032
385.106491,0.020134,-0.05985,0.009576,-9.901584,-9.90177,0.00426,-0.00213,0.001065,99130.24,30.44,-0.07777
385.126582,0.020091,-0.088578,-0.007182,-9.858492,-9.858893,0.00426,-0.009585,0.00213,99130.24,30.44,-0.034893
385.146722,0.02014,-0.033516,-0.014364,-9.829764,-9.829832,0.00213,-0.00426,0.00213,99130.24,30.44,-0.005832
385.166818,0.020096,-0.057456,0.014364,-9.824976,-9.825154,0.003195,-0.003195,0.00213,99130.24,30.44,-0.001154
385.186931,0.020113,-0.064638,-0.016758,-9.858492,-9.858718,0.00426,-0.003195,0.00426,99130.18,30.44,-0.034718
385.207068,0.020137,-0.069426,-0.033516,-9.813006,-9.813309,0.003195,-0.00639,0.001065,99130.18,30.44,0.010691
385.227189,0.020121,-0.110124,0,-9.848916,-9.849532,0.00213,-0.00639,0.003195,99130.18,30.44,-0.025532
385.247289,0.0201,-0.088578,0.02394,-9.889614,-9.89004,0.00213,-0.00639,0.00213,99130.18,30.44,-0.06604
385.267374,0.020085,-0.062244,-0.055062,-9.8154,-9.815752,0.003195,-0.00213,0.001065,99130.18,30.44,0.008248
385.287484,0.02011,-0.062244,-0.009576,-9.832158,-9.83236,0,-0.007455,0.00426,99130.18,30.44,-0.00836
385.307579,0.020094,-0.043092,-0.026334,-9.793854,-9.793984,0.003195,-0.005325,0.003195,99130.1,30.44,0.030016
385.328865,0.021287,-0.052668,0.045486,-9.844128,-9.844374,0.001065,-0.00426,0.003195,99130.1,30.44,-0.020374
385.348965,0.020099,-0.09576,0.01197,-9.860886,-9.861358,0.00213,-0.005325,0.00213,99130.1,30.44,-0.037358
385.369053,0.020088,-0.055062,-0.067032,-9.798642,-9.799026,0.00426,-0.005325,0,99130.1,30.44,0.024974
385.389166,0.020113,-0.057456,0.007182,-9.880038,-9.880208,0.003195,-0.005325,0,99130.1,30.44,-0.056208
385.409338,0.020172,-0.093366,0.009576,-9.868068,-9.868514,0.001065,-0.003195,0.003195,99130.06,30.44,-0.044514
385.429607,0.020269,-0.074214,-0.031122,-9.810612,-9.810942,0,-0.00639,0.00426,99130.06,30.44,0.013058
385.449699,0.020091,-0.064638,-0.021546,-9.765126,-9.765364,0.001065,-0.00426,0.001065,99130.06,30.44,0.058636
385.469817,0.020119,-0.079002,0.016758,-9.796248,-9.796581,0.00426,-0.00213,0.00426,99130.06,30.44,0.027419
385.490019,0.020202,-0.050274,-0.016758,-9.860886,-9.861028,0.003195,-0.005325,0.003195,99130.06,30.44,-0.037028
385.510104,0.020085,-0.045486,0.009576,-9.817794,-9.817904,0.001065,-0.007455,0.003195,99130.06,30.44,0.006096
385.530216,0.020112,-0.076608,0.002394,-9.86328,-9.863578,0.003195,-0.005325,0.001065,99129.73,30.44,-0.039578
385.550309,0.020093,-0.05985,0.007182,-9.87525,-9.875434,0.001065,-0.007455,0.001065,99129.73,30.44,-0.051434
385.570422,0.020112,-0.088578,-0.026334,-9.786672,-9.787108,-0.001065,-0.00639,0.00426,99129.73,30.44,0.036892
385.590511,0.020089,-0.05985,-0.038304,-9.83934,-9.839597,0.00426,-0.001065,0.003195,99129.73,30.44,-0.015597
385.610606,0.020096,-0.062244,-0.016758,-9.865674,-9.865885,0.00213,-0.005325,0.005325,99129.73,30.44,-0.041885
385.631158,0.020552,-0.033516,-0.033516,-9.80343,-9.803545,0.001065,-0.005325,0.003195,99129.73,30.44,0.020455
385.653276,0.022118,-0.076608,0.028728,-9.832158,-9.832498,0,-0.007455,0.003195,99129.73,30.44,-0.008498
385.673359,0.020083,-0.057456,0,-9.82737,-9.827538,0.003195,-0.005325,0.00426,99129.73,30.44,-0.003538
385.693476,0.020116,-0.062244,0.064638,-9.824976,-9.825386,0.00213,-0.005325,0,99129.73,30.44,-0.001386
385.713569,0.020093,-0.064638,0.038304,-9.836946,-9.837233,0,-0.005325,0.00213,99129.73,30.44,-0.013233
385.733665,0.020096,-0.08379,-0.040698,-9.822582,-9.823024,0.001065,-0.005325,0.001065,99129.73,30.44,0.000976
385.753914,0.02025,-0.079002,0.009576,-9.892008,-9.892328,0.001065,-0.00426,0.001065,99129.82,30.44,-0.068328
385.773994,0.02008,-0.090972,-0.031122,-9.822582,-9.823053,-0.003195,-0.00426,0.003195,99129.82,30.44,0.000947
385.794096,0.020102,-0.079002,-0.038304,-9.813006,-9.813399,0.003195,-0.005325,-0.00213,99129.82,30.44,0.010601
385.814181,0.020085,-0.090972,-0.033516,-9.85131,-9.851787,0,-0.00213,0.003195,99129.82,30.44,-0.027787
385.834292,0.020111,-0.045486,-0.03591,-9.83934,-9.839511,-0.001065,-0.007455,0,99129.82,30.44,-0.015511
385.854629,0.020337,0,-0.019152,-9.832158,-9.832177,0.00213,-0.00639,0.00426,99129.82,30.44,-0.008177
385.874733,0.020104,-0.031122,0.01197,-9.789066,-9.789123,0.003195,-0.00426,0.005325,99129.95,30.44,0.034877
385.894835,0.020102,-0.021546,-0.014364,-9.77949,-9.779524,0,-0.007455,0.00426,99129.95,30.44,0.044476
385.914953,0.020118,-0.03591,0.05985,-9.813006,-9.813254,0.003195,-0.005325,0.00213,99129.95,30.44,0.010746
385.935057,0.020104,-0.067032,0.021546,-9.870462,-9.870713,0.001065,-0.00852,0.00426,99129.95,30.44,-0.046713
385.956045,0.020988,-0.112518,0.014364,-9.87525,-9.875901,0.001065,-0.005325,0.00213,99129.95,30.44,-0.051901
385.977593,0.021548,-0.090972,0.04788,-9.844128,-9.844665,0.001065,-0.00852,0.003195,99130.02,30.44,-0.020665
385.997788,0.020195,-0.093366,0.01197,-9.85131,-9.85176,0.001065,-0.005325,0.00213,99130.02,30.44,-0.02776
386.017876,0.020088,-0.102942,-0.014364,-9.86328,-9.863828,0.003195,-0.00426,0.005325,99130.02,30.44,-0.039828
386.037976,0.0201,-0.079002,-0.01197,-9.846522,-9.846846,0,-0.007455,0.001065,99130.02,30.44,-0.022846
386.058103,0.020127,-0.04788,-0.076608,-9.80343,-9.803846,0.003195,-0.005325,0,99130.02,30.44,0.020154
386.078756,0.020653,-0.057456,-0.009576,-9.832158,-9.832331,0.00213,-0.01065,0.00426,99130.02,30.44,-0.008331
386.100588,0.021832,-0.07182,-0.055062,-9.774702,-9.775121,0.00426,-0.003195,0.003195,99130.03,30.44,0.048879
386.120677,0.020089,-0.064638,0.02394,-9.86328,-9.863521,0.003195,-0.005325,0.003195,99130.03,30.44,-0.039521
386.14081,0.020133,-0.055062,-0.028728,-9.83934,-9.839536,0.00213,-0.00213,0.001065,99130.03,30.44,-0.015536
386.160904,0.020094,-0.07182,-0.026334,-9.820188,-9.820486,0.003195,-0.00213,0.00426,99130.03,30.44,0.003514
386.181077,0.020173,-0.031122,0.052668,-9.848916,-9.849106,0.00426,-0.003195,0.001065,99130.03,30.44,-0.025106
386.201272,0.020195,-0.08379,0.01197,-9.82737,-9.827734,0.00213,-0.003195,0.00426,99130.02,30.44,-0.003734
386.221395,0.020123,-0.069426,0.045486,-9.856098,-9.856447,0.00213,-0.005325,0.003195,99130.02,30.44,-0.032447
386.241489,0.020094,-0.076608,0.043092,-9.856098,-9.85649,0.001065,-0.00426,0.00213,99130.02,30.44,-0.03249
386.261609,0.02012,-0.074214,-0.014364,-9.832158,-9.832449,0.00426,-0.001065,0.001065,99130.02,30.44,-0.008449
386.281931,0.020322,-0.069426,0.004788,-9.82737,-9.827616,0.00426,-0.00852,0.00213,99130.02,30.44,-0.003616
386.302491,0.02056,-0.045486,0.016758,-9.793854,-9.793974,0.00213,-0.00639,0.005325,99130.02,30.44,0.030026
386.324349,0.021859,-0.014364,0.002394,-9.846522,-9.846533,0.001065,-0.003195,0.005325,99129.89,30.44,-0.022533
386.344472,0.020122,-0.026334,-0.014364,-9.793854,-9.7939,0.00213,-0.007455,0.00426,99129.89,30.44,0.0301
386.364603,0.020131,-0.057456,-0.031122,-9.796248,-9.796466,0,-0.003195,0.005325,99129.89,30.44,0.027534
386.384704,0.020101,-0.062244,-0.016758,-9.844128,-9.844339,0.001065,-0.005325,0.003195,99129.89,30.44,-0.020339
386.404795,0.020091,-0.081396,-0.033516,-9.85131,-9.851703,0,-0.00639,0.001065,99129.89,30.44,-0.027703
386.425086,0.020291,-0.05985,-0.043092,-9.793854,-9.794132,0.001065,-0.003195,0.003195,99129.89,30.44,0.029868
386.445192,0.020106,-0.079002,0.01197,-9.860886,-9.86121,0.001065,-0.007455,0.00426,99129.81,30.44,-0.03721
386.465323,0.020131,-0.081396,0.009576,-9.832158,-9.8325,0,-0.003195,0.00426,99129.81,30.44,-0.0085
386.485406,0.020083,-0.05985,-0.009576,-9.796248,-9.796436,0.001065,-0.001065,0.001065,99129.81,30.44,0.027564
386.505491,0.020085,-0.079002,0.052668,-9.853704,-9.854161,0,-0.009585,0.003195,99129.81,30.44,-0.030161
386.525613,0.020122,-0.086184,-0.026334,-9.82737,-9.827783,0.003195,-0.003195,-0.00213,99129.81,30.44,-0.003783
386.545697,0.020084,-0.067032,0.04788,-9.860886,-9.86123,0,-0.007455,0.003195,99129.79,30.44,-0.03723
386.565914,0.020217,-0.062244,-0.01197,-9.784278,-9.784483,0.001065,-0.003195,0,99129.79,30.44,0.039517
386.586014,0.0201,-0.074214,-0.02394,-9.82737,-9.827679,0.003195,-0.001065,0.001065,99129.79,30.44,-0.003679
386.60621,0.020196,-0.050274,0.01197,-9.858492,-9.858627,0.00213,-0.00639,0.00426,99129.79,30.44,-0.034627
386.62706,0.020849,-0.055062,-0.062244,-9.781884,-9.782237,0,-0.007455,0.003195,99129.79,30.44,0.041763
386.648753,0.021693,-0.064638,-0.026334,-9.87525,-9.875497,0.001065,-0.009585,0.003195,99129.79,30.44,-0.051497
386.668852,0.020099,-0.043092,-0.043092,-9.820188,-9.820377,0.00213,-0.005325,0.00426,99129.81,30.44,0.003623
386.688992,0.02014,-0.062244,-0.043092,-9.829764,-9.830056,0.003195,-0.00213,0.003195,99129.81,30.44,-0.006056
386.709164,0.020172,-0.069426,0.007182,-9.836946,-9.837194,0,-0.00639,0.00426,99129.81,30.44,-0.013194
386.729342,0.020178,-0.050274,-0.02394,-9.793854,-9.794012,0.00213,-0.00852,0.00213,99129.81,30.44,0.029988
386.749441,0.020099,-0.055062,0.031122,-9.877644,-9.877846,0.00426,-0.00426,0.00426,99129.81,30.44,-0.053846
386.771718,0.022277,-0.062244,0.002394,-9.865674,-9.865871,-0.001065,-0.005325,0.00426,99129.56,30.44,-0.041871
386.791803,0.020085,-0.076608,0.026334,-9.848916,-9.849249,0.005325,-0.007455,0.003195,99129.56,30.44,-0.025249
386.811873,0.02007,-0.10773,0.050274,-9.901584,-9.902298,0.003195,-0.005325,0.00426,99129.56,30.44,-0.078298
386.831962,0.020089,-0.088578,0.002394,-9.801036,-9.801437,0.001065,-0.00213,0.001065,99129.56,30.44,0.022563
386.852052,0.02009,-0.088578,-0.004788,-9.801036,-9.801437,0.003195,-0.005325,0.00213,99129.56,30.44,0.022563
386.872279,0.020227,-0.090972,0.03591,-9.844128,-9.844614,0.00213,-0.00639,0.001065,99129.56,30.44,-0.020614
386.892367,0.020088,-0.081396,-0.007182,-9.805824,-9.806164,0.00213,-0.00426,0.00213,99129.66,30.44,0.017836
386.912456,0.020089,-0.079002,-0.033516,-9.822582,-9.822957,0.00213,-0.005325,0.00426,99129.66,30.44,0.001043
386.93255,0.020094,-0.110124,-0.050274,-9.793854,-9.794602,0,-0.005325,0.00213,99129.66,30.44,0.029398
386.95265,0.0201,-0.062244,-0.028728,-9.810612,-9.810852,0.005325,-0.005325,0,99129.66,30.44,0.013148
386.97295,0.0203,-0.045486,0.040698,-9.889614,-9.889802,0.00213,-0.007455,0.00213,99129.66,30.44,-0.065802
386.99305,0.020099,-0.057456,-0.050274,-9.836946,-9.837242,0.00426,-0.00426,0.00426,99129.66,30.44,-0.013242
387.013135,0.020085,-0.067032,0.009576,-9.858492,-9.858725,0.001065,-0.003195,0.00213,99129.76,30.44,-0.034725
387.033319,0.020184,-0.019152,0.014364,-9.832158,-9.832187,0.001065,-0.00639,0.005325,99129.76,30.44,-0.008187
387.053404,0.020085,-0.057456,0.009576,-9.80343,-9.803603,0,-0.007455,0.00213,99129.76,30.44,0.020397
387.073652,0.020247,-0.057456,0.016758,-9.834552,-9.834734,0.00213,-0.00213,0.003195,99129.76,30.44,-0.010734
387.093733,0.020081,-0.090972,-0.004788,-9.824976,-9.825398,0.00213,-0.00639,0.00213,99129.76,30.44,-0.001398
387.113819,0.020086,-0.038304,-0.026334,-9.786672,-9.786782,0.00213,-0.005325,0.001065,99129.81,30.44,0.037218
387.133938,0.02012,-0.079002,0.040698,-9.858492,-9.858893,0.00213,-0.00639,0.003195,99129.81,30.44,-0.034893
387.154039,0.020101,-0.090972,-0.004788,-9.810612,-9.811035,0.00213,-0.005325,0.00426,99129.81,30.44,0.012965
387.174347,0.020308,-0.08379,-0.026334,-9.884826,-9.885216,0.001065,-0.00426,0.001065,99129.81,30.44,-0.061216
387.19444,0.020093,-0.088578,-0.03591,-9.817794,-9.818259,-0.001065,-0.007455,0.00426,99129.81,30.44,0.005741
387.214556,0.020116,-0.07182,-0.05985,-9.801036,-9.801482,0.003195,-0.00426,0.003195,99129.81,30.44,0.022518
387.234642,0.020086,-0.062244,-0.028728,-9.858492,-9.85873,0.003195,-0.007455,0.00213,99129.9,30.44,-0.03473
387.254742,0.0201,-0.067032,0.004788,-9.793854,-9.794085,0.001065,-0.00852,0.003195,99129.9,30.44,0.029915
387.275131,0.02039,-0.057456,-0.016758,-9.848916,-9.849098,0.00639,-0.003195,0.00213,99129.9,30.44,-0.025098
387.295213,0.020082,-0.038304,-0.033516,-9.844128,-9.84426,0.00213,-0.00852,0.00639,99129.9,30.44,-0.02026
387.315378,0.020165,-0.138852,-0.019152,-9.892008,-9.893001,0.001065,-0.001065,0.003195,99129.9,30.44,-0.069001
387.335474,0.020096,-0.002394,0.074214,-9.750762,-9.751045,0.001065,-0.005325,0.001065,99129.9,30.44,0.072955
387.355567,0.020093,-0.038304,0.02394,-9.915948,-9.916051,-0.00213,-0.007455,0.001065,99129.79,30.44,-0.092051
387.375642,0.020075,-0.07182,-0.007182,-9.801036,-9.801302,0.001065,-0.00639,-0.001065,99129.79,30.44,0.022698
387.395729,0.020087,-0.043092,0.031122,-9.832158,-9.832302,0.00213,-0.007455,0.00213,99129.79,30.44,-0.008302
387.415819,0.02009,-0.038304,0.021546,-9.793854,-9.793953,-0.00213,-0.00426,0.00213,99129.79,30.44,0.030047
387.435909,0.02009,-0.13167,-0.043092,-9.848916,-9.84989,0.003195,-0.005325,0.00213,99129.79,30.44,-0.02589
387.456005,0.020096,-0.04788,0.040698,-9.846522,-9.846723,0.001065,-0.00852,0.00213,99129.79,30.44,-0.022723
387.476276,0.020272,-0.129276,0.026334,-9.813006,-9.813893,0.00213,-0.005325,0.003195,99129.69,30.44,0.010107
387.496371,0.020094,-0.064638,0.019152,-9.870462,-9.870692,0.001065,-0.00639,0.001065,99129.69,30.44,-0.046692
387.516477,0.020106,-0.076608,0.019152,-9.882432,-9.882747,0.00213,-0.007455,0.003195,99129.69,30.44,-0.058747
387.536579,0.020102,-0.04788,0.002394,-9.901584,-9.9017,0,-0.00426,0.005325,99129.69,30.44,-0.0777
387.556698,0.02012,-0.114912,0.038304,-9.793854,-9.794603,0.00213,-0.00639,0.00426,99129.69,30.44,0.029397
387.57714,0.020442,-0.052668,-0.03591,-9.73161,-9.731819,0,-0.007455,0.003195,99129.74,30.44,0.092181
387.599387,0.022247,-0.004788,-0.014364,-9.73161,-9.731622,0.003195,-0.00213,0.001065,99129.74,30.44,0.092378
387.619479,0.020092,-0.074214,0.021546,-9.901584,-9.901886,0.001065,-0.007455,0.00213,99129.74,30.44,-0.077886
387.639565,0.020086,-0.038304,-0.076608,-9.844128,-9.844501,0.00213,-0.00426,0.003195,99129.74,30.44,-0.020501
387.659703,0.020138,-0.052668,-0.031122,-9.880038,-9.880227,0,-0.00639,0.003195,99129.74,30.44,-0.056227
387.679792,0.020089,-0.052668,0.02394,-9.810612,-9.810783,0.001065,-0.00639,0.001065,99129.74,30.44,0.013217
387.700047,0.020255,-0.045486,0.028728,-9.805824,-9.805972,0.00426,-0.00639,0.00639,99129.81,30.44,0.018028
387.720143,0.020096,-0.08379,0.002394,-9.829764,-9.830121,0.00213,-0.00639,0.003195,99129.81,30.44,-0.006121
387.740234,0.020092,-0.069426,-0.045486,-9.774702,-9.775054,0.001065,-0.00852,0.001065,99129.81,30.44,0.048946
387.760326,0.020092,-0.090972,0.031122,-9.748368,-9.748842,0.001065,-0.00426,0.00213,99129.81,30.44,0.075158
387.780427,0.020101,-0.100548,0.004788,-9.750762,-9.751282,0.001065,-0.00639,0.00213,99129.81,30.44,0.072718
387.800653,0.020226,-0.079002,-0.016758,-9.741186,-9.741521,0.001065,-0.00426,0.003195,99130.08,30.44,0.082479
387.820738,0.020085,-0.07182,0.01197,-9.801036,-9.801306,-0.001065,-0.00426,0.003195,99130.08,30.44,0.022694
387.840861,0.020123,-0.069426,0.007182,-9.781884,-9.782133,0.00213,-0.00639,0.00426,99130.08,30.44,0.041867
387.860964,0.020103,-0.045486,-0.03591,-9.690912,-9.691085,0.00213,-0.00639,0.005325,99130.08,30.44,0.132915
387.881062,0.020098,-0.08379,0.002394,-9.796248,-9.796607,0.00426,-0.003195,0.003195,99130.08,30.44,0.027393
387.901339,0.020278,-0.040698,0.009576,-9.676548,-9.676638,0,-0.007455,0.00213,99130.08,30.44,0.147362
387.921418,0.020079,-0.04788,0.031122,-9.74358,-9.743747,0.001065,-0.00639,0.001065,99130.16,30.44,0.080253
387.941503,0.020085,-0.07182,0.02394,-9.726822,-9.727117,-0.003195,-0.007455,0.00639,99130.16,30.44,0.096883
387.961622,0.020119,-0.112518,-0.021546,-9.652608,-9.653288,0.00213,-0.00426,0.003195,99130.16,30.44,0.170712
387.981851,0.020229,-0.03591,-0.016758,-9.710064,-9.710145,0,-0.00639,0.001065,99130.16,30.44,0.113855
388.002023,0.020172,-0.090972,-0.021546,-9.621486,-9.62194,0.00213,-0.00639,0.00213,99130.16,30.44,0.20206
388.022108,0.020085,-0.064638,-0.028728,-9.65979,-9.660049,0.00213,-0.00426,0.00213,99130.16,30.44,0.163951
388.042235,0.020127,-0.076608,-0.016758,-9.669366,-9.669684,0.001065,-0.009585,0.003195,99130.06,30.44,0.154316
388.062343,0.020108,-0.050274,-0.03591,-9.616698,-9.616896,0,-0.00852,0.00426,99130.06,30.44,0.207104
388.082507,0.020164,-0.043092,0.009576,-9.62388,-9.623981,0.00213,-0.003195,0.00213,99130.06,30.44,0.200019
388.102876,0.020369,-0.064638,0.026334,-9.626274,-9.626527,0,-0.00639,0.003195,99130.06,30.44,0.197473
388.125065,0.022189,-0.07182,-0.038304,-9.59994,-9.600285,0.003195,-0.001065,0.00213,99130.06,30.44,0.223715
388.145177,0.020111,-0.102942,0.014364,-9.61191,-9.612472,0,-0.00852,0.003195,99130.02,30.44,0.211528
388.165325,0.020148,-0.076608,0.01197,-9.592758,-9.593071,0.003195,-0.003195,0.00213,99130.02,30.44,0.230929
388.185408,0.020083,-0.057456,-0.021546,-9.54009,-9.540287,0.003195,-0.003195,0.001065,99130.02,30.44,0.283713
388.205495,0.020087,-0.045486,0.007182,-9.561636,-9.561747,-0.001065,-0.007455,0.001065,99130.02,30.44,0.262253
388.225749,0.020253,-0.031122,-0.02394,-9.54009,-9.540171,0.003195,-0.00426,0.003195,99130.02,30.44,0.283829
388.245835,0.020086,-0.031122,0.031122,-9.580788,-9.580889,0.00426,-0.005325,0.00426,99130.02,30.44,0.243111
388.266015,0.02018,-0.064638,-0.009576,-9.535302,-9.535526,0,-0.00639,0.00213,99130.02,30.44,0.288474
388.286103,0.020088,-0.062244,-0.033516,-9.525726,-9.525988,0.003195,-0.007455,0.00213,99130.02,30.44,0.298012
388.306235,0.020132,-0.057456,0.019152,-9.525726,-9.525919,0.00213,-0.005325,0.003195,99130.02,30.44,0.298081
388.326402,0.020167,-0.04788,-0.031122,-9.465876,-9.466048,0.00213,-0.007455,0.003195,99130.02,30.44,0.357952
388.346497,0.020095,-0.05985,0.014364,-9.542484,-9.542682,0.001065,-0.007455,0.00213,99130.02,30.44,0.281318
388.366588,0.020091,-0.052668,0.04788,-9.532908,-9.533174,0,-0.005325,0.00426,99129.85,30.44,0.290826
388.386675,0.020087,-0.04788,-0.050274,-9.453906,-9.454161,0.003195,-0.007455,0.003195,99129.85,30.44,0.369839
388.406769,0.020094,-0.079002,0.002394,-9.463482,-9.463812,0.00213,-0.00213,0.001065,99129.85,30.44,0.360188
388.426986,0.020218,-0.081396,-0.02394,-9.449118,-9.449499,0,-0.00426,0.003195,99129.85,30.44,0.374501
388.449859,0.022873,-0.081396,0.014364,-9.427572,-9.427934,0.00213,-0.005325,0.003195,99129.85,30.44,0.396066
388.4722,0.022341,-0.086184,-0.004788,-9.415602,-9.415998,0,-0.007455,0,99129.85,30.44,0.408002
388.494618,0.022417,-0.050274,0.028728,-9.449118,-9.449295,0.00213,-0.00639,0.003195,99129.9,30.44,0.374705
388.51649,0.021873,-0.093366,0.016758,-9.389268,-9.389747,0.003195,-0.007455,0.00213,99129.9,30.44,0.434253
388.536591,0.020101,-0.045486,0.026334,-9.415602,-9.415749,0.003195,-0.005325,0.00426,99129.9,30.44,0.408251
388.556692,0.020101,-0.069426,0.033516,-9.410814,-9.41113,0.001065,-0.007455,0.003195,99129.9,30.44,0.41287
388.576855,0.020163,-0.08379,-0.009576,-9.36054,-9.36092,0.003195,-0.003195,0.00426,99129.9,30.44,0.46308
388.596998,0.020143,-0.052668,0.02394,-9.389268,-9.389446,0.00213,-0.00426,0.00639,99129.9,30.44,0.434554
388.617141,0.020143,-0.052668,-0.019152,-9.353358,-9.353526,0,-0.007455,0.00426,99129.98,30.44,0.470474
388.637262,0.020121,-0.050274,-0.019152,-9.329418,-9.329573,0.00426,-0.003195,0.005325,99129.98,30.44,0.494427
388.657349,0.020088,-0.100548,0.014364,-9.329418,-9.329971,0.00213,-0.007455,0.00213,99129.98,30.44,0.494029
388.677435,0.020086,-0.026334,-0.05985,-9.248022,-9.248253,0.001065,-0.00639,0.001065,99129.98,30.44,0.575747
388.697528,0.020093,-0.081396,0.01197,-9.327024,-9.327387,0.00426,-0.00426,0.00213,99129.98,30.44,0.496613
388.71795,0.020421,-0.07182,0.038304,-9.362934,-9.363288,0.001065,-0.00639,0.003195,99130,30.44,0.460712
388.738034,0.020085,-0.040698,-0.043092,-9.307872,-9.308061,0.003195,-0.003195,0.00426,99130,30.44,0.515939
388.758139,0.020105,-0.052668,0.002394,-9.362934,-9.363082,0.00213,-0.005325,0.003195,99130,30.44,0.460918
388.778246,0.020106,-0.07182,0.033516,-9.341388,-9.341724,0.00213,-0.007455,0.003195,99130,30.44,0.482276
388.798331,0.020085,-0.09576,0.002394,-9.295902,-9.296396,0.00213,-0.00426,0.00213,99130,30.44,0.527604
388.818709,0.020378,-0.062244,0.043092,-9.391662,-9.391967,0.005325,-0.00639,0.00426,99130,30.44,0.432033
388.84084,0.022131,-0.08379,-0.002394,-9.331812,-9.332188,0,-0.00213,0.003195,99129.9,30.44,0.491812
388.860924,0.020085,-0.069426,0.009576,-9.343782,-9.344045,0,-0.007455,0.003195,99129.9,30.44,0.479955
388.881016,0.020092,-0.014364,-0.007182,-9.305478,-9.305492,0.00213,-0.005325,0.00426,99129.9,30.44,0.518508
388.901113,0.020097,-0.04788,-0.014364,-9.274356,-9.274491,0.00639,-0.00639,0.003195,99129.9,30.44,0.549509
388.92128,0.020167,-0.090972,0.007182,-9.374904,-9.375348,0,-0.00213,0.00426,99129.9,30.44,0.448652
388.94162,0.02034,-0.069426,0.002394,-9.307872,-9.308131,0.001065,-0.003195,0.00213,99129.9,30.44,0.515869
388.961726,0.020106,-0.026334,0.067032,-9.389268,-9.389544,0,-0.00426,0.00213,99129.76,30.44,0.434456
388.981826,0.0201,-0.04788,0.043092,-9.370116,-9.370337,0,-0.005325,0.00213,99129.76,30.44,0.453663
389.00193,0.020104,-0.004788,-0.002394,-9.281538,-9.28154,0.00213,-0.001065,0.00213,99129.76,30.44,0.54246
389.022062,0.020132,-0.105336,-0.004788,-9.31266,-9.313257,0,-0.00639,0.003195,99129.76,30.44,0.510743
389.042268,0.020206,-0.100548,-0.055062,-9.307872,-9.308578,0.00213,-0.005325,0.003195,99129.76,30.44,0.515422
389.06237,0.020102,-0.067032,-0.019152,-9.346176,-9.346436,0.003195,-0.001065,0.00213,99129.73,30.44,0.477564
389.082453,0.020083,-0.105336,-0.031122,-9.327024,-9.327671,0.001065,-0.00426,0.003195,99129.73,30.44,0.496329
389.10257,0.020117,-0.10773,-0.014364,-9.293508,-9.294143,0.00213,-0.007455,0.00639,99129.73,30.44,0.529857
389.122702,0.020132,-0.076608,0.021546,-9.370116,-9.370454,0.00213,-0.007455,0.005325,99129.73,30.44,0.453546
389.143336,0.020634,-0.122094,0.033516,-9.350964,-9.351821,0.001065,-0.00639,0.00213,99129.73,30.44,0.472179
389.165237,0.021901,-0.057456,-0.043092,-9.26478,-9.265058,0.003195,-0.00213,0.00213,99129.73,30.44,0.558942
389.185342,0.020105,-0.055062,0.01197,-9.32463,-9.3248,0.00213,-0.00852,0.003195,99129.81,30.44,0.4992
389.205438,0.020096,-0.062244,0.01197,-9.31266,-9.312876,0.001065,-0.005325,0.00213,99129.81,30.44,0.511124
389.225527,0.020089,-0.07182,-0.004788,-9.281538,-9.281817,0.003195,-0.00426,0.005325,99129.81,30.44,0.542183
389.245614,0.020087,-0.02394,0.03591,-9.32463,-9.32473,0,-0.003195,0.00639,99129.81,30.44,0.49927
389.265878,0.020264,-0.05985,-0.01197,-9.317448,-9.317648,0.001065,-0.00426,0.005325,99129.81,30.44,0.506352
389.285963,0.020085,-0.045486,0.016758,-9.350964,-9.35109,0.001065,-0.00639,0.003195,99130.13,30.44,0.47291
389.306067,0.020104,-0.043092,-0.050274,-9.317448,-9.317683,0,-0.007455,0.00426,99130.13,30.44,0.506317
389.326174,0.020107,-0.079002,-0.021546,-9.307872,-9.308232,0.003195,-0.00213,0.00213,99130.13,30.44,0.515768
389.34627,0.020096,-0.052668,0.014364,-9.334206,-9.334366,0.001065,-0.00426,0.001065,99130.13,30.44,0.489634
389.366782,0.020512,-0.03591,-0.026334,-9.3366,-9.336706,0.001065,-0.007455,0.00213,99130.13,30.44,0.487294
389.388869,0.022087,-0.07182,0.043092,-9.346176,-9.346551,0.00213,-0.005325,0.001065,99130.13,30.44,0.477449
389.408956,0.020087,-0.076608,-0.004788,-9.281538,-9.281855,0.001065,-0.005325,0.00426,99130.11,30.44,0.542145
389.429039,0.020083,-0.086184,-0.009576,-9.315054,-9.315458,0.00213,-0.005325,0.005325,99130.11,30.44,0.508542
389.449147,0.020108,-0.110124,0.03591,-9.355752,-9.356469,0.001065,-0.00639,0.005325,99130.11,30.44,0.467531
389.46933,0.020183,-0.05985,-0.031122,-9.295902,-9.296147,0.00213,-0.005325,0.00426,99130.11,30.44,0.527853
389.48971,0.02038,-0.04788,0.01197,-9.362934,-9.363064,0.00213,-0.00213,0.00426,99130.11,30.44,0.460936
389.51188,0.02217,-0.064638,-0.021546,-9.310266,-9.310515,0.00213,-0.00639,0.00639,99130.11,30.44,0.513485
389.531965,0.020085,-0.045486,-0.009576,-9.422784,-9.422899,0.001065,-0.00426,0.00426,99130.45,30.44,0.401101
389.552054,0.020089,-0.016758,0.031122,-9.34857,-9.348637,0.003195,-0.007455,0.003195,99130.45,30.44,0.475363
389.57216,0.020106,-0.10773,-0.028728,-9.30069,-9.301358,0.001065,-0.00426,0.00426,99130.45,30.44,0.522642
389.592256,0.020096,-0.04788,-0.016758,-9.343782,-9.34392,0,-0.00639,0.00426,99130.45,30.44,0.48008
389.612605,0.020349,-0.031122,-0.016758,-9.327024,-9.327091,0.00213,-0.009585,0.003195,99130.45,30.44,0.496909
389.632689,0.020083,-0.05985,0.002394,-9.286326,-9.286519,0.005325,-0.00426,0.00213,99130.61,30.44,0.537481
389.65281,0.020121,-0.033516,0.019152,-9.389268,-9.389347,0.001065,-0.00426,0.00213,99130.61,30.44,0.434653
389.672908,0.020098,-0.02394,-0.031122,-9.322236,-9.322319,0.007455,-0.005325,0.003195,99130.61,30.44,0.501681
389.693003,0.020094,-0.03591,0.01197,-9.31266,-9.312737,0.005325,-0.003195,0.001065,99130.61,30.44,0.511263
389.713265,0.020262,-0.069426,0.03591,-9.346176,-9.346503,0.00213,-0.007455,0.003195,99130.61,30.44,0.477497
389.733352,0.020087,-0.052668,-0.040698,-9.310266,-9.310504,0.001065,-0.00213,0.001065,99130.61,30.44,0.513496
389.753438,0.020086,-0.038304,0,-9.34857,-9.348648,0.00213,-0.007455,0.00426,99130.79,30.44,0.475352
389.773582,0.020145,-0.074214,0.045486,-9.307872,-9.308279,0.001065,-0.007455,0.00639,99130.79,30.44,0.515721
389.793676,0.020094,-0.055062,-0.033516,-9.274356,-9.27458,0,-0.00213,0.00213,99130.79,30.44,0.54942
389.813914,0.020238,-0.074214,0.021546,-9.374904,-9.375223,0.00213,-0.007455,0.00213,99130.79,30.44,0.448777
389.83408,0.020166,-0.052668,-0.026334,-9.259992,-9.260179,0.00426,-0.003195,0.00426,99130.79,30.44,0.563821
389.85417,0.02009,-0.043092,-0.019152,-9.255204,-9.255324,0,-0.00426,0.003195,99131.16,30.44,0.568676
389.874262,0.020092,-0.086184,0.002394,-9.370116,-9.370513,0,-0.00639,0,99131.16,30.44,0.453487
389.89436,0.020098,-0.081396,-0.04788,-9.319842,-9.32032,0.00213,-0.00639,0.00213,99131.16,30.44,0.50368
389.91471,0.02035,-0.055062,0.055062,-9.31266,-9.312986,-0.001065,-0.003195,0.001065,99131.16,30.44,0.511014
389.934795,0.020085,-0.086184,-0.007182,-9.358146,-9.358546,-0.00213,-0.007455,0.003195,99131.16,30.44,0.465454
389.954964,0.020169,-0.086184,0,-9.310266,-9.310665,0.001065,-0.003195,0.00426,99131.16,30.44,0.513335
389.975053,0.020089,-0.028728,0.033516,-9.389268,-9.389372,0.00213,-0.00639,0.00213,99131.35,30.44,0.434628
389.995144,0.020091,-0.050274,-0.007182,-9.319842,-9.31998,-0.001065,-0.005325,0.00213,99131.35,30.44,0.50402
390.015462,0.020318,-0.062244,0.02394,-9.291114,-9.291353,0.00426,-0.005325,0.001065,99131.35,30.44,0.532647
390.03767,0.022208,-0.055062,0.02394,-9.281538,-9.281732,0,-0.007455,0.001065,99131.35,30.44,0.542268
390.057753,0.020083,-0.064638,-0.014364,-9.355752,-9.355986,0.003195,-0.00639,0.00213,99131.35,30.44,0.468014
390.077911,0.020158,-0.052668,0.014364,-9.32463,-9.32479,0.001065,-0.00639,0.003195,99131.35,30.44,0.49921
390.098002,0.020091,-0.043092,0.021546,-9.310266,-9.310391,0.001065,-0.00639,0.005325,99132.01,30.44,0.513609
390.1181,0.020098,-0.098154,0.021546,-9.34857,-9.34911,0.001065,-0.00213,0.001065,99132.01,30.44,0.47489
390.138294,0.020195,-0.052668,0.021546,-9.334206,-9.334379,-0.00213,-0.00852,0.00426,99132.01,30.44,0.489621
390.158391,0.020097,-0.05985,-0.038304,-9.317448,-9.317719,0,-0.00639,0.001065,99132.01,30.44,0.506281
390.178473,0.020082,-0.081396,0,-9.358146,-9.3585,0.00426,-0.005325,0.003195,99132.01,30.44,0.4655
390.198589,0.020116,-0.062244,-0.01197,-9.32463,-9.324845,0,-0.009585,0.00426,99132.01,30.44,0.499155
390.21868,0.020091,-0.110124,-0.045486,-9.293508,-9.294272,0.00213,-0.007455,0.00426,99132.35,30.44,0.529728
390.238908,0.020228,-0.052668,0.03591,-9.379692,-9.379909,-0.001065,-0.005325,0.00213,99132.35,30.44,0.444091
390.258991,0.020084,-0.076608,0.002394,-9.303084,-9.3034,0.00213,-0.005325,0.001065,99132.35,30.44,0.5206
390.279077,0.020086,-0.033516,-0.043092,-9.269568,-9.269729,0.00426,-0.00426,0.003195,99132.35,30.44,0.554271
390.299169,0.020092,-0.110124,0.02394,-9.386874,-9.38755,0.001065,-0.00639,0.00213,99132.35,30.44,0.43645
390.31944,0.020272,-0.08379,-0.028728,-9.303084,-9.303506,-0.00213,-0.00426,0.001065,99133,30.44,0.520494
390.339612,0.020172,-0.026334,-0.002394,-9.317448,-9.317486,0,-0.00426,0.003195,99133,30.44,0.506514
390.359724,0.020112,0.019152,-0.026334,-9.243234,-9.243291,0.001065,-0.00639,0.003195,99133,30.44,0.580709
390.379816,0.020092,-0.062244,-0.009576,-9.331812,-9.332024,0,-0.00426,0.001065,99133,30.44,0.491976
390.399918,0.020103,-0.040698,0.01197,-9.358146,-9.358242,-0.001065,-0.009585,0.00213,99133,30.44,0.465758
390.420016,0.020098,-0.052668,0.04788,-9.367722,-9.367992,-0.001065,-0.007455,0.00213,99133,30.44,0.456008
390.440217,0.020201,-0.031122,0.007182,-9.350964,-9.351019,-0.001065,-0.00639,0.003195,99133.37,30.44,0.472981
390.460311,0.020094,-0.052668,-0.002394,-9.3366,-9.336749,0,-0.00639,0.003195,99133.37,30.44,0.487251
390.480399,0.020087,-0.045486,-0.03591,-9.28872,-9.288901,0.003195,-0.00852,0.005325,99133.37,30.44,0.535099
390.500489,0.02009,-0.086184,0,-9.334206,-9.334604,0.001065,-0.005325,0.001065,99133.37,30.44,0.489396
390.520583,0.020094,-0.08379,-0.002394,-9.303084,-9.303462,-0.003195,-0.009585,0.003195,99133.37,30.44,0.520538
390.540979,0.020396,-0.112518,-0.026334,-9.327024,-9.32774,0.003195,-0.00639,0.00213,99133.37,30.44,0.49626
390.561066,0.020086,-0.081396,0.028728,-9.350964,-9.351362,0.00213,-0.005325,0.00426,99133.9,30.44,0.472638
390.581158,0.020092,-0.076608,-0.03591,-9.283932,-9.284318,0.001065,-0.005325,0.003195,99133.9,30.44,0.539682
390.601277,0.020119,-0.076608,-0.016758,-9.353358,-9.353687,0.00213,-0.003195,0.005325,99133.9,30.44,0.470313
390.621359,0.020082,-0.114912,0.069426,-9.319842,-9.320809,0.00213,-0.00639,0.00426,99133.9,30.44,0.503191
390.641574,0.020216,-0.110124,0,-9.31266,-9.313311,0,-0.003195,0.003195,99133.9,30.44,0.510689
390.661667,0.020092,-0.014364,0.009576,-9.338994,-9.33901,0.003195,-0.01065,0.00213,99134.59,30.43,0.48499
390.681752,0.020086,-0.055062,0.045486,-9.350964,-9.351237,0.00213,-0.005325,0.003195,99134.59,30.43,0.472763
390.701844,0.020091,-0.134064,-0.002394,-9.274356,-9.275325,0.00426,-0.00426,0.00426,99134.59,30.43,0.548675
390.721945,0.020101,-0.05985,0,-9.391662,-9.391853,0.001065,-0.005325,0.00213,99134.59,30.43,0.432147
390.742279,0.020334,-0.031122,-0.04788,-9.298296,-9.298471,0.00213,-0.00852,0.003195,99134.59,30.43,0.525529
390.762386,0.020107,-0.064638,0.01197,-9.365328,-9.365559,0.003195,-0.00426,0.00213,99134.59,30.43,0.458441
390.782542,0.020156,-0.028728,0.016758,-9.338994,-9.339053,0,-0.00852,0,99135.14,30.43,0.484947
390.802679,0.020137,-0.069426,-0.01197,-9.34857,-9.348835,-0.001065,-0.003195,0.00213,99135.14,30.43,0.475165
390.822879,0.0202,0.009576,0.01197,-9.31266,-9.312673,0,-0.003195,0.00213,99135.14,30.43,0.511327
390.84303,0.020151,-0.05985,0.040698,-9.37251,-9.372789,-0.001065,-0.007455,0.00639,99135.14,30.43,0.451211
390.863125,0.020095,-0.052668,-0.002394,-9.341388,-9.341537,0.003195,-0.003195,0.00639,99135.14,30.43,0.482463
390.883323,0.020198,-0.102942,-0.007182,-9.355752,-9.356321,0.001065,-0.005325,0.003195,99136.24,30.43,0.467679
390.903467,0.020143,-0.033516,-0.01197,-9.298296,-9.298364,0.001065,-0.009585,0.005325,99136.24,30.43,0.525636
390.92364,0.020174,-0.079002,0.004788,-9.38448,-9.384814,0.00426,-0.00426,0.00426,99136.24,30.43,0.439186
390.943756,0.020116,-0.038304,-0.002394,-9.355752,-9.355831,0.001065,-0.009585,0.00639,99136.24,30.43,0.468169
390.96591,0.022154,-0.064638,-0.026334,-9.269568,-9.269831,0.005325,-0.00639,0.00213,99136.24,30.43,0.554169
390.985995,0.020086,-0.162792,0.01197,-9.34857,-9.349995,0.001065,-0.00426,0.00213,99136.24,30.43,0.474005
391.006087,0.020092,-0.076608,-0.08379,-9.322236,-9.322927,0.003195,-0.005325,0.003195,99136.85,30.44,0.501073
391.026186,0.020099,-0.052668,-0.033516,-9.374904,-9.375112,0.00426,-0.00639,0.003195,99136.85,30.44,0.448888
391.046289,0.020102,-0.090972,0.007182,-9.338994,-9.33944,0.001065,-0.00639,0.001065,99136.85,30.44,0.48456
391.066631,0.020343,-0.100548,-0.055062,-9.346176,-9.346879,0.00213,-0.00639,0.003195,99136.85,30.44,0.477121
391.086735,0.020104,0.01197,0,-9.398844,-9.398852,0.00213,-0.00852,0.001065,99136.85,30.44,0.425148
391.106822,0.020087,-0.093366,-0.021546,-9.317448,-9.317941,0.001065,-0.00639,0.003195,99136.85,30.44,0.506059
391.126932,0.02011,-0.055062,-0.076608,-9.319842,-9.320319,0.003195,-0.00639,0.001065,99138.14,30.43,0.503681
391.147034,0.020102,0.002394,-0.016758,-9.355752,-9.355767,0.00426,-0.00639,0.003195,99138.14,30.43,0.468233
391.16728,0.020246,-0.064638,-0.03591,-9.358146,-9.358438,0,-0.00426,0.003195,99138.14,30.43,0.465562
391.18737,0.020091,-0.08379,0.01197,-9.410814,-9.411195,0,-0.00426,0.003195,99138.14,30.43,0.412805
391.207456,0.020086,-0.05985,-0.002394,-9.37251,-9.372701,0,-0.005325,0.00426,99138.14,30.43,0.451299
391.227549,0.020092,-0.086184,0.038304,-9.353358,-9.353833,0.00213,-0.003195,0.001065,99138.14,30.43,0.470167
391.247661,0.020113,-0.055062,0.002394,-9.334206,-9.334369,0.003195,-0.00426,0,99138.69,30.43,0.489631
391.267919,0.020258,-0.090972,-0.02394,-9.365328,-9.3658,0.003195,-0.00639,0.005325,99138.69,30.43,0.4582
391.288013,0.020094,-0.043092,0.007182,-9.346176,-9.346278,0.00213,-0.005325,0.003195,99138.69,30.43,0.477722
391.308103,0.02009,-0.08379,0.093366,-9.36054,-9.361381,0,-0.005325,0.003195,99138.69,30.43,0.462619
391.32819,0.020087,-0.13167,-0.033516,-9.317448,-9.318439,0,-0.00852,0.001065,99138.69,30.43,0.505561
391.348285,0.020096,-0.064638,0.016758,-9.350964,-9.351202,0.003195,-0.00639,0.00426,99139.93,30.43,0.472798
391.36853,0.020245,-0.050274,0.064638,-9.36054,-9.360898,0.00213,-0.007455,0.00426,99139.93,30.43,0.463102
391.388621,0.020091,-0.067032,-0.08379,-9.353358,-9.353973,0.00213,-0.00426,0.005325,99139.93,30.43,0.470027
391.408714,0.020093,-0.028728,0.016758,-9.319842,-9.319901,0,-0.005325,0.00426,99139.93,30.43,0.504099
391.428819,0.020105,-0.05985,-0.026334,-9.37251,-9.372738,0,-0.00426,0.003195,99139.93,30.43,0.451262
391.448925,0.020106,-0.007182,-0.038304,-9.310266,-9.310348,0.00426,-0.00426,0.003195,99139.93,30.43,0.513652
391.469197,0.020272,-0.045486,0.02394,-9.353358,-9.353499,0,-0.00639,0.003195,99140.8,30.43,0.470501
391.49215,0.022953,-0.079002,-0.031122,-9.315054,-9.315441,0.001065,-0.005325,0.001065,99140.8,30.43,0.508559
391.514017,0.021867,-0.004788,-0.007182,-9.329418,-9.329422,0.00213,-0.007455,0.005325,99140.8,30.43,0.494578
391.534103,0.020085,-0.002394,0.007182,-9.274356,-9.274359,0.001065,-0.003195,0.003195,99140.8,30.43,0.549641
391.554194,0.020091,-0.040698,-0.007182,-9.243234,-9.243326,0.00213,-0.003195,0.001065,99140.8,30.43,0.580674
391.574285,0.020091,-0.04788,-0.031122,-9.350964,-9.351138,-0.001065,-0.007455,0.003195,99141.41,30.43,0.472862
391.59443,0.020145,-0.021546,0.033516,-9.327024,-9.327109,0.00213,0,0.003195,99141.41,30.43,0.496891
391.614598,0.020167,-0.028728,0.05985,-9.317448,-9.317685,0.00213,-0.005325,0.003195,99141.41,30.43,0.506315
391.634678,0.02008,-0.093366,0.019152,-9.338994,-9.33948,0.001065,-0.007455,0.00426,99141.41,30.43,0.48452
391.654774,0.020096,-0.016758,-0.016758,-9.283932,-9.283962,0.00426,-0.00426,0.00426,99141.41,30.43,0.540038
391.674858,0.020084,-0.136458,0.050274,-9.3366,-9.337732,0,-0.003195,0.00213,99141.41,30.43,0.486268
391.694989,0.020131,-0.114912,0,-9.315054,-9.315763,0.001065,-0.005325,0.00426,99142.73,30.43,0.508237
391.715288,0.020298,-0.04788,0.019152,-9.322236,-9.322379,0.003195,-0.00213,0.001065,99142.73,30.43,0.501621
391.735378,0.02009,-0.079002,-0.01197,-9.293508,-9.293851,0.003195,-0.003195,0.00639,99142.73,30.43,0.530149
391.755463,0.020085,-0.122094,-0.02394,-9.338994,-9.339823,0,-0.003195,0.005325,99142.73,30.43,0.484177
391.775574,0.020112,-0.033516,-0.009576,-9.3366,-9.336665,0.003195,-0.003195,0.005325,99142.73,30.43,0.487335
391.795655,0.02008,-0.090972,-0.033516,-9.327024,-9.327528,0,-0.00639,0.00213,99142.73,30.43,0.496472
391.815925,0.02027,-0.050274,-0.028728,-9.269568,-9.269749,0.001065,-0.00426,0.005325,99143.59,30.43,0.554251
391.836014,0.020089,-0.033516,0.004788,-9.303084,-9.303146,0.003195,-0.005325,0.005325,99143.59,30.43,0.520854
391.856093,0.020079,-0.043092,-0.019152,-9.362934,-9.363053,0.003195,-0.00639,0.00213,99143.59,30.43,0.460947
391.876276,0.020184,-0.045486,-0.007182,-9.374904,-9.375017,0.00213,-0.00426,0.001065,99143.59,30.43,0.448983
391.89637,0.020093,-0.050274,0.007182,-9.310266,-9.310405,0.001065,-0.009585,0.005325,99143.59,30.43,0.513595
391.916676,0.020306,-0.050274,-0.021546,-9.291114,-9.291275,0.00213,-0.009585,0.00426,99144.99,30.43,0.532725
391.936758,0.020082,-0.026334,0.004788,-9.353358,-9.353396,0.00213,-0.007455,0.003195,99144.99,30.43,0.470604
391.956844,0.020086,-0.07182,-0.028728,-9.350964,-9.351284,0.001065,-0.00639,0.003195,99144.99,30.43,0.472716
391.976942,0.020098,-0.038304,-0.04788,-9.291114,-9.291316,0.001065,-0.003195,0.00426,99144.99,30.43,0.532684
391.997033,0.020091,0.004788,0.067032,-9.38448,-9.384721,0,-0.00213,0.00213,99144.99,30.43,0.439279
392.017495,0.020462,-0.03591,-0.02394,-9.274356,-9.274456,0,-0.00639,0.00426,99144.99,30.43,0.549544
392.039607,0.022112,-0.031122,-0.004788,-9.370116,-9.370169,0.003195,-0.007455,0.00426,99145.99,30.43,0.453831
392.059693,0.020086,-0.031122,-0.021546,-9.279144,-9.279221,0.00213,-0.00852,0.003195,99145.99,30.43,0.544779
392.079796,0.020103,0.028728,0.007182,-9.334206,-9.334253,0.003195,-0.00639,0.005325,99145.99,30.43,0.489747
392.099882,0.020087,-0.052668,0.021546,-9.365328,-9.365501,-0.001065,-0.01065,0.003195,99145.99,30.43,0.458499
392.119997,0.020115,-0.067032,0.02394,-9.305478,-9.30575,0.001065,-0.003195,0.003195,99145.99,30.43,0.51825
392.140282,0.020284,-0.090972,-0.009576,-9.315054,-9.315503,0,-0.00639,0.003195,99148,30.43,0.508497
392.160364,0.020083,-0.098154,-0.055062,-9.259992,-9.260676,-0.001065,-0.00426,0.00213,99148,30.43,0.563324
392.18046,0.020095,-0.076608,-0.02394,-9.334206,-9.334551,0.001065,-0.00426,0.003195,99148,30.43,0.489449
392.200561,0.020102,-0.117306,0.098154,-9.355752,-9.357002,0.00213,-0.001065,0.001065,99148,30.43,0.466998
392.220658,0.020096,-0.122094,-0.002394,-9.31266,-9.313461,-0.00213,-0.00852,0.003195,99148,30.43,0.510539
392.240945,0.020287,-0.076608,-0.03591,-9.34857,-9.348953,0.003195,-0.007455,0.001065,99148,30.43,0.475047
392.261025,0.020081,-0.043092,-0.045486,-9.319842,-9.320053,0.00213,-0.00639,0.00213,99148.79,30.43,0.503947
392.281124,0.020098,-0.093366,0.01197,-9.307872,-9.308348,0.00213,-0.00426,0.00426,99148.79,30.43,0.515652
392.301463,0.020339,-0.043092,0,-9.334206,-9.334305,0.00213,-0.005325,0.00426,99148.79,30.43,0.489695
392.321543,0.020081,-0.05985,0.05985,-9.343782,-9.344165,0.00213,-0.00426,0.003195,99148.79,30.43,0.479835
392.341784,0.02024,-0.081396,-0.069426,-9.271962,-9.272579,0,-0.003195,0.001065,99148.79,30.43,0.551421
392.361885,0.020101,-0.057456,-0.014364,-9.350964,-9.351152,0.00213,-0.00639,0.00426,99148.79,30.43,0.472848
392.382019,0.020134,-0.026334,0.019152,-9.262386,-9.262443,0.003195,-0.00639,0.00213,99150.95,30.43,0.561557
392.402278,0.020259,-0.009576,0.040698,-9.329418,-9.329512,0.003195,-0.00426,0.005325,99150.95,30.43,0.494488
392.42237,0.020092,0.014364,0.052668,-9.338994,-9.339154,-0.001065,-0.00639,0.00213,99150.95,30.43,0.484846
392.442595,0.020225,-0.021546,0.014364,-9.329418,-9.329454,0.001065,-0.00639,0.00213,99150.95,30.43,0.494546
392.464704,0.022109,-0.07182,-0.009576,-9.34857,-9.348851,0.00213,-0.007455,0.00213,99150.95,30.43,0.475149
392.484803,0.020099,-0.033516,-0.009576,-9.30069,-9.300755,0,-0.007455,0.005325,99152.23,30.43,0.523245
392.504931,0.020128,-0.074214,0.02394,-9.38448,-9.384804,0.001065,-0.00426,0.00426,99152.23,30.43,0.439196
392.525027,0.020097,-0.07182,0.014364,-9.379692,-9.379978,0.00213,-0.00852,0.00426,99152.23,30.43,0.444022
392.545134,0.020106,-0.114912,-0.002394,-9.319842,-9.320551,0.003195,-0.007455,0.00426,99152.23,30.43,0.503449
392.565351,0.020217,-0.074214,0.045486,-9.343782,-9.344187,0.00213,-0.005325,0.00213,99152.23,30.43,0.479813
392.58782,0.022469,-0.114912,0.016758,-9.34857,-9.349291,-0.001065,-0.009585,0.003195,99152.23,30.43,0.474709
392.607921,0.020101,-0.064638,0.03591,-9.322236,-9.322529,0,-0.007455,0.003195,99153.48,30.43,0.501471
392.628019,0.020099,-0.100548,0.067032,-9.365328,-9.366108,0.00213,-0.00639,0.00426,99153.48,30.43,0.457892
392.648114,0.020095,-0.02394,-0.004788,-9.226476,-9.226508,0.001065,-0.007455,0,99153.48,30.43,0.597492
392.668209,0.020095,-0.067032,0.026334,-9.267174,-9.267454,0.001065,-0.00852,0.003195,99153.48,30.43,0.556546
392.688381,0.020172,-0.04788,0.01197,-9.317448,-9.317579,0,-0.00852,0.003195,99153.48,30.43,0.506421
392.708477,0.020096,-0.055062,-0.004788,-9.291114,-9.291278,0,-0.00852,-0.001065,99153.48,30.43,0.532722
392.728575,0.020098,0.004788,0.07182,-9.355752,-9.356029,0,-0.005325,0,99155.89,30.43,0.467971
392.74867,0.020096,-0.067032,0.021546,-9.293508,-9.293775,0.00213,-0.00426,0.00213,99155.89,30.43,0.530225
392.768769,0.020099,-0.040698,0.031122,-9.331812,-9.331953,0.00213,-0.00639,0.001065,99155.89,30.43,0.492047
392.789055,0.020286,-0.064638,-0.028728,-9.307872,-9.308141,0.001065,-0.00639,0,99155.89,30.43,0.515859
392.809141,0.020086,-0.1197,-0.112518,-9.338994,-9.340439,0.001065,-0.00426,0.001065,99155.89,30.43,0.483561
392.829314,0.020173,-0.117306,-0.045486,-9.322236,-9.323085,0.003195,-0.00852,0.005325,99156.89,30.43,0.500915
392.849446,0.020132,-0.076608,-0.04788,-9.327024,-9.327461,0.00213,-0.003195,0.001065,99156.89,30.43,0.496539
392.869533,0.020087,-0.043092,-0.052668,-9.319842,-9.32009,0.00213,-0.003195,0.003195,99156.89,30.43,0.50391
392.889695,0.020162,-0.043092,-0.009576,-9.341388,-9.341492,0.00426,-0.001065,0.005325,99156.89,30.43,0.482508
392.909786,0.020091,-0.064638,-0.102942,-9.293508,-9.294303,0,-0.00639,0.00639,99156.89,30.43,0.529697
392.929887,0.020101,-0.021546,-0.086184,-9.27675,-9.277175,0.005325,-0.00852,0.00426,99156.89,30.43,0.546825
392.949983,0.020096,-0.01197,0.045486,-9.329418,-9.329537,0.00213,-0.00426,0.00426,99159.27,30.43,0.494463
392.970078,0.020095,-0.069426,0.03591,-9.274356,-9.274685,0.001065,-0.005325,0.003195,99159.27,30.43,0.549315
392.990325,0.020247,-0.062244,0.016758,-9.34857,-9.348792,0.001065,-0.00426,0.003195,99159.27,30.43,0.475208
393.010406,0.020081,-0.055062,0.026334,-9.358146,-9.358345,0.00213,-0.00639,0.001065,99159.27,30.43,0.465655
393.030503,0.020097,-0.100548,0.033516,-9.394056,-9.394654,0.00213,-0.00213,0,99159.27,30.43,0.429346
393.050584,0.020081,-0.045486,0.026334,-9.406026,-9.406173,0.00213,-0.003195,0.001065,99159.27,30.43,0.417827
393.070672,0.020088,-0.09576,0.105336,-9.34857,-9.349654,0.00213,-0.00639,0.001065,99160.53,30.43,0.474346
393.091076,0.020404,-0.122094,0.016758,-9.382086,-9.382895,0.003195,-0.00213,-0.003195,99160.53,30.43,0.441105
393.111157,0.020081,-0.076608,0.026334,-9.343782,-9.344133,-0.00213,-0.005325,0,99160.53,30.43,0.479867
393.131259,0.020102,-0.122094,-0.016758,-9.317448,-9.318263,0.001065,-0.007455,0.001065,99160.53,30.43,0.505737
393.151343,0.020084,-0.100548,-0.124488,-9.298296,-9.299673,0.00426,-0.00426,0.00213,99160.53,30.43,0.524327
393.171461,0.020118,-0.062244,-0.08379,-9.305478,-9.306063,0.001065,-0.00639,0.00213,99163.01,30.43,0.517937
393.191658,0.020197,-0.122094,-0.129276,-9.267174,-9.26888,0.001065,-0.00852,0.005325,99163.01,30.43,0.55512
393.211736,0.020078,-0.069426,-0.05985,-9.317448,-9.317899,0,-0.00639,0.003195,99163.01,30.43,0.506101
393.231826,0.02009,0.009576,-0.07182,-9.269568,-9.269851,0.001065,-0.007455,0.00426,99163.01,30.43,0.554149
393.251946,0.020119,-0.026334,-0.062244,-9.291114,-9.29136,0.00213,-0.00426,0.007455,99163.01,30.43,0.53264
393.272046,0.0201,-0.031122,-0.074214,-9.355752,-9.356098,0.00213,-0.005325,0.00426,99163.01,30.43,0.467902
393.292301,0.020256,0.014364,-0.13167,-9.291114,-9.292058,0.00213,-0.00213,0.005325,99164.27,30.43,0.531942
393.312395,0.020094,-0.04788,-0.002394,-9.365328,-9.365451,0.003195,-0.00426,0.00213,99164.27,30.43,0.458549
393.332482,0.020087,-0.033516,0.019152,-9.406026,-9.406105,0.00639,-0.005325,0.001065,99164.27,30.43,0.417895
393.352598,0.020116,-0.040698,0.040698,-9.310266,-9.310444,0.003195,-0.00426,0.001065,99164.27,30.43,0.513556
393.372695,0.020097,-0.114912,0.062244,-9.406026,-9.406934,0.003195,-0.00213,0.001065,99164.27,30.43,0.417066
393.392956,0.020261,-0.057456,-0.03591,-9.3366,-9.336846,0.00426,-0.003195,0.001065,99164.27,30.43,0.487154
393.413059,0.020104,-0.069426,0.04788,-9.365328,-9.365708,0.00426,0,0.001065,99166.91,30.43,0.458292
393.43315,0.02009,-0.15561,0.02394,-9.394056,-9.395375,0.00213,-0.00639,0.003195,99166.91,30.43,0.428625
393.453429,0.020279,-0.150822,-0.043092,-9.286326,-9.287651,0.001065,-0.00426,0.00213,99166.91,30.43,0.536349
393.473516,0.020087,-0.15561,-0.043092,-9.389268,-9.390656,0.003195,-0.00426,0.003195,99166.91,30.43,0.433344
393.493663,0.020147,-0.136458,-0.021546,-9.341388,-9.342409,0.003195,-0.00426,0.00639,99166.91,30.43,0.481591
393.513744,0.020081,-0.098154,-0.028728,-9.39645,-9.397007,-0.003195,-0.00426,0.00426,99168.38,30.43,0.426993
393.533846,0.020102,-0.093366,0.028728,-9.358146,-9.358656,0.00213,-0.01065,0.00639,99168.38,30.43,0.465344
393.553932,0.020086,-0.093366,0.040698,-9.341388,-9.341943,-0.001065,-0.01065,0.00639,99168.38,30.43,0.482057
393.574192,0.02026,-0.045486,-0.055062,-9.298296,-9.29857,0.001065,-0.00639,0.00426,99168.38,30.43,0.52543
393.594414,0.020222,-0.031122,-0.007182,-9.343782,-9.343837,0,-0.00426,0.003195,99168.38,30.43,0.480163
393.614498,0.020084,-0.028728,-0.007182,-9.319842,-9.319889,0.001065,-0.00639,0.00213,99168.38,30.43,0.504111
393.634593,0.020096,0.02394,0.009576,-9.30069,-9.300726,0.003195,-0.00852,0.00639,99169.89,30.43,0.523274
393.654821,0.020228,0.01197,-0.002394,-9.338994,-9.339002,0.00213,-0.00426,0.005325,99169.89,30.43,0.484998
393.674924,0.020103,-0.009576,-0.062244,-9.269568,-9.269782,0.001065,-0.005325,0.005325,99169.89,30.43,0.554218
393.695095,0.020171,-0.03591,-0.01197,-9.319842,-9.319919,0.001065,-0.007455,0.00426,99169.89,30.43,0.504081
393.715197,0.020102,-0.105336,-0.055062,-9.26478,-9.265542,0.001065,-0.007455,0.00426,99169.89,30.43,0.558458
393.73528,0.020083,-0.064638,0.01197,-9.394056,-9.394286,0.00426,-0.00426,0.001065,99169.89,30.43,0.429714
393.755473,0.020193,-0.079002,0.057456,-9.379692,-9.380201,0.003195,-0.00426,0.003195,99172.62,30.43,0.443799
393.775562,0.02009,-0.05985,0.067032,-9.422784,-9.423212,0.00213,-0.00426,0.00213,99172.62,30.43,0.400788
393.795664,0.020101,-0.021546,0.07182,-9.429966,-9.430264,0.003195,-0.003195,0.00213,99172.62,30.43,0.393736
393.815768,0.020105,-0.090972,0.090972,-9.37251,-9.373393,0.001065,-0.00852,0.001065,99172.62,30.43,0.450607
393.835867,0.020099,-0.090972,0.02394,-9.413208,-9.413678,0.00213,-0.00639,0.001065,99172.62,30.43,0.410322
393.85597,0.020103,-0.04788,0.074214,-9.422784,-9.423198,0.001065,-0.00639,0,99174.21,30.43,0.400802
393.876076,0.020106,-0.081396,0.043092,-9.394056,-9.394507,0.001065,-0.001065,0.003195,99174.21,30.43,0.429493
393.896298,0.020222,-0.098154,-0.016758,-9.406026,-9.406553,0.00213,-0.00426,0.00426,99174.21,30.43,0.417447
393.916386,0.020087,-0.04788,-0.038304,-9.434754,-9.434953,0.001065,-0.00639,0.00426,99174.21,30.43,0.389047
393.936479,0.020093,-0.110124,-0.043092,-9.43236,-9.433101,0.003195,-0.00426,0.00426,99174.21,30.43,0.390899
393.956566,0.020087,-0.067032,-0.028728,-9.429966,-9.430248,-0.001065,-0.005325,0.005325,99174.21,30.43,0.393752
393.97687,0.020304,-0.069426,-0.019152,-9.44433,-9.444605,0.001065,-0.007455,0.005325,99177.21,30.43,0.379395
393.997674,0.020804,-0.028728,-0.081396,-9.477846,-9.478239,0.00426,-0.001065,0.00639,99177.21,30.43,0.345761
394.019351,0.021676,-0.031122,0.045486,-9.547272,-9.547431,0.00213,-0.00639,0.00639,99177.21,30.43,0.276569
394.039446,0.020095,0.002394,0.007182,-9.542484,-9.542487,0.003195,-0.001065,0.00426,99177.21,30.43,0.281513
394.059581,0.020135,-0.069426,-0.01197,-9.506574,-9.506835,0.00213,-0.00213,0.00426,99177.21,30.43,0.317165
394.079683,0.020102,-0.098154,0.038304,-9.580788,-9.581367,0.00213,-0.00639,0.003195,99177.21,30.43,0.242633
394.099833,0.02015,-0.10773,-0.026334,-9.508968,-9.509615,0,-0.001065,0.00426,99178.97,30.43,0.314385
394.120019,0.020186,-0.134064,0.01197,-9.561636,-9.562583,0.00213,-0.00852,0.00213,99178.97,30.43,0.261417
394.140102,0.020083,-0.090972,0.019152,-9.578394,-9.578845,-0.001065,-0.00639,0.00213,99178.97,30.43,0.245155
394.160191,0.020089,-0.100548,-0.031122,-9.549666,-9.550246,0.001065,-0.00426,0.001065,99178.97,30.43,0.273754
394.180288,0.020097,-0.153216,0.002394,-9.571212,-9.572439,0,-0.007455,0.00213,99178.97,30.43,0.251561
394.20039,0.020103,-0.126882,-0.043092,-9.597546,-9.598481,0.00213,-0.00426,0.001065,99182.59,30.43,0.225519
394.220617,0.020227,-0.141246,0.01197,-9.67176,-9.672799,0.00213,-0.00213,0.003195,99182.59,30.43,0.151201
394.240761,0.020145,-0.081396,-0.038304,-9.616698,-9.617119,0.001065,-0.005325,0.00426,99182.59,30.43,0.206881
394.26088,0.020119,-0.08379,-0.057456,-9.609516,-9.610053,0.00213,-0.00639,0.00426,99182.59,30.43,0.213947
394.281,0.020119,-0.074214,-0.02394,-9.67176,-9.672074,0.003195,-0.00426,0.00639,99182.59,30.43,0.151926
394.301187,0.020188,-0.055062,-0.040698,-9.614304,-9.614548,-0.00213,-0.007455,0.00426,99182.59,30.43,0.209452
394.321433,0.020245,-0.01197,-0.040698,-9.710064,-9.710157,0.005325,-0.00639,0.00426,99184.4,30.43,0.113843
394.341515,0.020083,0.026334,0.040698,-9.621486,-9.621608,-0.00213,-0.00852,0.00213,99184.4,30.43,0.202392
394.361604,0.020089,0.002394,0.019152,-9.614304,-9.614323,0.001065,-0.00639,0.005325,99184.4,30.43,0.209677
394.38169,0.020086,-0.040698,0.007182,-9.68373,-9.683818,0.003195,-0.00639,0.003195,99184.4,30.43,0.140182
394.401823,0.020133,-0.043092,0.028728,-9.73161,-9.731748,-0.003195,-0.003195,0.001065,99184.4,30.43,0.092252
394.423057,0.021234,-0.090972,-0.021546,-9.774702,-9.775149,0.003195,0.001065,0.005325,99187.96,30.43,0.048851
394.444473,0.021415,-0.09576,0.090972,-9.777096,-9.777988,-0.00213,-0.009585,0.003195,99187.96,30.43,0.046012
394.464581,0.020109,-0.110124,-0.031122,-9.722034,-9.722707,0.003195,-0.003195,0.003195,99187.96,30.43,0.101293
394.484706,0.020125,-0.086184,0.004788,-9.784278,-9.784659,0.00213,-0.00639,0.003195,99187.96,30.43,0.039341
394.50483,0.020124,-0.138852,-0.002394,-9.74358,-9.74457,0.001065,-0.00639,0.003195,99187.96,30.43,0.07943
394.524952,0.020122,-0.055062,-0.13167,-9.726822,-9.727869,0.00426,-0.003195,0.003195,99187.96,30.43,0.096131
394.545532,0.02058,-0.021546,0.114912,-9.829764,-9.830459,0,-0.00639,0.003195,99189.98,30.43,-0.006459
394.567378,0.021846,-0.04788,-0.031122,-9.750762,-9.750929,0.001065,-0.00639,0.005325,99189.98,30.43,0.073071
394.587466,0.020089,-0.088578,-0.086184,-9.8154,-9.816178,0.007455,0,0.00213,99189.98,30.43,0.007822
394.607556,0.02009,0,0.028728,-9.82737,-9.827412,0.00426,-0.00639,0,99189.98,30.43,-0.003412
394.627649,0.020093,-0.002394,0.050274,-9.738792,-9.738922,0,-0.005325,-0.001065,99189.98,30.43,0.085078
394.647778,0.020128,-0.122094,-0.016758,-9.892008,-9.892776,0.00213,-0.00639,-0.001065,99189.98,30.43,-0.068776
394.668089,0.020311,-0.098154,-0.100548,-9.789066,-9.790074,0.00213,-0.005325,-0.00213,99191.86,30.43,0.033926
394.688239,0.02015,-0.158004,-0.01197,-9.858492,-9.859765,0.00213,-0.003195,0,99191.86,30.43,-0.035765
394.708324,0.020085,-0.088578,0.03591,-9.853704,-9.854168,0.001065,-0.005325,0.003195,99191.86,30.43,-0.030168
394.728424,0.0201,-0.138852,0.02394,-9.80343,-9.804443,0.001065,-0.00639,0.003195,99191.86,30.43,0.019557
394.748514,0.020089,-0.134064,-0.009576,-9.796248,-9.79717,0.003195,-0.001065,0.00213,99191.86,30.43,0.02683
394.768699,0.020185,-0.105336,0.009576,-9.796248,-9.796819,0.003195,-0.003195,0.001065,99196.05,30.43,0.027181
394.788798,0.020099,-0.074214,0.04788,-9.798642,-9.79904,0,-0.00213,0.00426,99196.05,30.43,0.02496
394.808893,0.020095,-0.067032,0.079002,-9.848916,-9.849461,0.00213,-0.007455,0.00426,99196.05,30.43,-0.025461
394.829015,0.020122,-0.02394,0.098154,-9.884826,-9.885342,0.00639,-0.00426,0.001065,99196.05,30.43,-0.061342
394.849104,0.020089,-0.026334,0.02394,-9.880038,-9.880102,0.00852,-0.00426,0.00213,99196.05,30.43,-0.056102
394.869602,0.020498,0.021546,-0.05985,-9.896796,-9.897,0.001065,-0.00852,0.00213,99196.05,30.43,-0.073
394.891699,0.022097,0.007182,-0.040698,-9.846522,-9.846609,0.003195,-0.00639,0.00213,99198.04,30.43,-0.022609
394.911805,0.020105,-0.040698,-0.055062,-9.870462,-9.870699,0,-0.007455,0.00213,99198.04,30.43,-0.046699
394.931941,0.020136,-0.043092,-0.004788,-9.846522,-9.846617,-0.001065,-0.005325,0.001065,99198.04,30.43,-0.022617
394.952057,0.020117,-0.031122,-0.100548,-9.77949,-9.780056,0.00213,-0.00639,0.00213,99198.04,30.43,0.043944
394.972165,0.020108,-0.062244,-0.043092,-9.868068,-9.868358,0.00213,-0.00639,0.00426,99198.04,30.43,-0.044358
394.992385,0.02022,-0.074214,-0.074214,-9.77949,-9.780053,0,-0.003195,0.003195,99202.55,30.43,0.043947
395.012489,0.020104,-0.069426,-0.038304,-9.801036,-9.801357,0.00426,-0.001065,0.00639,99202.55,30.43,0.022643
395.032595,0.020105,-0.09576,0.02394,-9.793854,-9.794351,0,-0.00426,0.005325,99202.55,30.43,0.029649
395.052718,0.020123,-0.088578,0.007182,-9.760338,-9.760743,0.00213,0,0.00426,99202.55,30.43,0.063257
395.072802,0.020084,-0.110124,0.033516,-9.868068,-9.868739,0.00213,-0.00639,0.00426,99202.55,30.43,-0.044739
395.0931,0.020299,-0.129276,-0.03591,-9.760338,-9.76126,0.001065,-0.00639,0.001065,99202.55,30.43,0.06274
395.113187,0.020087,-0.134064,0.04788,-9.892008,-9.893032,0.00213,-0.003195,0.005325,99204.73,30.43,-0.069032
395.133295,0.020107,-0.098154,0.043092,-9.858492,-9.859075,0.003195,-0.00639,0.00426,99204.73,30.43,-0.035075
395.153382,0.020087,-0.158004,-0.016758,-9.841734,-9.843017,0.003195,-0.007455,0.003195,99204.73,30.43,-0.019017
395.173468,0.020086,-0.110124,0.031122,-9.880038,-9.880701,0.00213,-0.001065,0.00213,99204.73,30.43,-0.056701
395.193701,0.020233,-0.172368,0.045486,-9.877644,-9.879253,-0.00213,-0.00852,0.007455,99204.73,30.43,-0.055253
395.213787,0.020086,-0.076608,0.062244,-9.906372,-9.906864,0.003195,-0.003195,0.00213,99204.73,30.43,-0.082864
395.233952,0.020165,-0.08379,0.079002,-9.930312,-9.93098,0.001065,-0.009585,0.00426,99209.13,30.43,-0.10698
395.254045,0.020093,-0.062244,0.014364,-9.786672,-9.78688,0,-0.00852,0.005325,99209.13,30.43,0.03712
395.274278,0.020233,-0.086184,0,-9.77949,-9.77987,0,-0.00426,0.005325,99209.13,30.43,0.04413
395.294959,0.020681,-0.043092,0.040698,-9.817794,-9.817973,0,-0.005325,0.00639,99209.13,30.43,0.006027
395.316748,0.021789,-0.007182,-0.014364,-9.858492,-9.858505,0.00426,-0.003195,0.00426,99209.13,30.43,-0.034505
395.336837,0.020089,-0.033516,0.02394,-9.817794,-9.81788,0.001065,-0.00639,0.003195,99211.25,30.43,0.00612
395.35694,0.020103,-0.055062,-0.038304,-9.781884,-9.782114,0.003195,-0.005325,0.00213,99211.25,30.43,0.041886
395.377105,0.020164,-0.02394,-0.04788,-9.853704,-9.853849,0.003195,-0.00213,0.003195,99211.25,30.43,-0.029849
395.397333,0.020228,-0.019152,0,-9.865674,-9.865693,0.00639,0.001065,0.001065,99211.25,30.43,-0.041693
395.417905,0.020572,-0.076608,0.019152,-9.85131,-9.851626,0.003195,-0.005325,-0.001065,99211.25,30.43,-0.027626
395.439769,0.021864,-0.067032,0.031122,-9.865674,-9.865951,0.00213,-0.003195,0.001065,99211.25,30.43,-0.041951
395.459868,0.020099,-0.093366,-0.007182,-9.829764,-9.83021,0.00426,-0.00426,0,99213.46,30.43,-0.00621
395.479962,0.020094,-0.146034,-0.014364,-9.865674,-9.866765,0.00426,-0.007455,0,99213.46,30.43,-0.042765
395.500068,0.020105,-0.098154,-0.01197,-9.834552,-9.835049,0,-0.009585,0.00213,99213.46,30.43,-0.011049
395.520174,0.020106,-0.088578,-0.002394,-9.774702,-9.775104,-0.001065,-0.009585,0.003195,99213.46,30.43,0.048896
395.540384,0.020211,-0.100548,0.002394,-9.844128,-9.844642,0.00213,-0.007455,0.003195,99213.46,30.43,-0.020642
395.560641,0.020257,-0.08379,-0.050274,-9.808218,-9.808705,0.005325,-0.00852,0.001065,99218.22,30.43,0.015295
395.580736,0.020095,-0.045486,-0.019152,-9.8154,-9.815524,0.003195,-0.00639,0.003195,99218.22,30.43,0.008476
395.600836,0.0201,-0.052668,0.028728,-9.836946,-9.837129,-0.003195,-0.005325,0.00426,99218.22,30.43,-0.013129
395.62093,0.020093,-0.067032,-0.01197,-9.832158,-9.832394,0,-0.005325,0.00426,99218.22,30.43,-0.008394
395.64107,0.02014,-0.019152,-0.043092,-9.913554,-9.913666,0.00426,-0.00213,0.00213,99218.22,30.43,-0.089666
395.661177,0.020108,-0.067032,0.004788,-9.870462,-9.870691,0,-0.009585,0.001065,99218.22,30.43,-0.046691
395.681371,0.020194,-0.057456,-0.031122,-9.841734,-9.841951,0.00213,-0.00426,-0.001065,99220.67,30.43,-0.017951
395.701465,0.020094,-0.08379,0.040698,-9.853704,-9.854144,0.001065,-0.00852,0.00213,99220.67,30.43,-0.030144
395.721556,0.02009,-0.13167,0.04788,-9.856098,-9.857094,-0.001065,-0.00852,0.00426,99220.67,30.43,-0.033094
395.741814,0.020258,-0.162792,0.019152,-9.882432,-9.883791,0.00426,-0.003195,0.00426,99220.67,30.43,-0.059791
395.761906,0.020092,-0.122094,0.086184,-9.882432,-9.883562,0,-0.011715,0.003195,99220.67,30.43,-0.059562
395.782091,0.020185,-0.150822,0.01197,-9.796248,-9.797416,-0.003195,-0.00426,0.001065,99220.67,30.43,0.026584
395.802191,0.020099,-0.146034,-0.021546,-9.808218,-9.809329,0.00213,-0.007455,0.003195,99225.66,30.43,0.014671
395.822464,0.020273,-0.086184,-0.05985,-9.817794,-9.818355,0.001065,-0.00639,0.003195,99225.66,30.43,0.005645
395.843051,0.020587,-0.040698,-0.062244,-9.781884,-9.782167,0,-0.00639,0.007455,99225.66,30.43,0.041833
395.864827,0.021777,0.03591,0.055062,-9.86328,-9.863499,0.001065,-0.00639,0.007455,99225.66,30.43,-0.039499
395.884921,0.020094,-0.062244,-0.098154,-9.741186,-9.741879,0,-0.007455,0.005325,99225.66,30.43,0.082121
395.905047,0.020126,-0.03591,-0.040698,-9.853704,-9.853853,0.005325,-0.00426,0.00213,99228.16,30.43,-0.029853
395.925145,0.020098,0.02394,0.016758,-9.870462,-9.870505,0,-0.00639,0.003195,99228.16,30.43,-0.046505
395.945291,0.020146,0.007182,0.002394,-9.774702,-9.774705,0.003195,-0.00639,0.00426,99228.16,30.43,0.049295
395.965502,0.020211,-0.04788,0.031122,-9.82737,-9.827536,0.001065,-0.003195,0.00426,99228.16,30.43,-0.003536
395.985612,0.02011,-0.090972,0.004788,-9.822582,-9.823004,0.005325,-0.005325,0.00426,99228.16,30.43,0.000996
396.005699,0.020087,-0.052668,-0.05985,-9.798642,-9.798966,0.00426,-0.003195,0.00213,99228.16,30.43,0.025034
396.025794,0.020095,-0.062244,0.040698,-9.903978,-9.904257,0.005325,-0.00213,0.00426,99233.13,30.43,-0.080257
396.045907,0.020113,-0.105336,0.067032,-9.868068,-9.868858,0.00213,-0.007455,0.00213,99233.13,30.43,-0.044858
396.066191,0.020284,-0.10773,0.016758,-9.832158,-9.832762,0.003195,-0.007455,0.005325,99233.13,30.43,-0.008762
396.086306,0.020114,-0.093366,-0.028728,-9.83934,-9.839825,0.001065,-0.003195,0.003195,99233.13,30.43,-0.015825
396.106447,0.020142,-0.079002,0.004788,-9.822582,-9.822901,0.00213,-0.005325,0.001065,99233.13,30.43,0.001099
396.126552,0.020105,-0.067032,0.004788,-9.896796,-9.897024,0.00426,-0.00852,0.00426,99233.13,30.43,-0.073024
396.146681,0.020129,-0.100548,0.050274,-9.762732,-9.763379,0,-0.009585,0.005325,99235.83,30.43,0.060621
396.167324,0.020643,-0.031122,-0.002394,-9.858492,-9.858541,0.001065,-0.00426,0.005325,99235.83,30.43,-0.034541
396.189168,0.021843,0.016758,0.016758,-9.83934,-9.839369,-0.00213,-0.005325,0.00639,99235.83,30.43,-0.015369
396.209302,0.020134,-0.007182,0.004788,-9.841734,-9.841738,0.001065,0,0.00426,99235.83,30.43,-0.017738
396.229388,0.020086,0.009576,0.04788,-9.805824,-9.805946,0.001065,-0.003195,0.00639,99235.83,30.43,0.018054
396.249577,0.02019,0.019152,-0.052668,-9.844128,-9.844288,0.001065,-0.00426,0.003195,99240.96,30.43,-0.020288
396.269664,0.020086,0.031122,-0.05985,-9.702882,-9.703116,0.005325,-0.003195,0.00213,99240.96,30.43,0.120884
396.289814,0.02015,-0.181944,-0.021546,-9.836946,-9.838652,0.00213,-0.009585,-0.001065,99240.96,30.43,-0.014652
396.309895,0.020081,-0.05985,-0.03591,-9.813006,-9.813254,0.00639,0,0,99240.96,30.43,0.010746
396.330072,0.020177,-0.1197,-0.009576,-9.820188,-9.820922,0.001065,-0.00639,0.00213,99240.96,30.43,0.003078
396.350166,0.020094,-0.129276,0.031122,-9.808218,-9.809119,0.003195,-0.007455,0.005325,99240.96,30.43,0.014881
396.370285,0.020119,-0.201096,-0.01197,-9.844128,-9.846189,0.00639,-0.001065,0.003195,99243.52,30.43,-0.022189
396.390513,0.020229,-0.136458,0.02394,-9.896796,-9.897766,0.00213,-0.005325,0.001065,99243.52,30.43,-0.073766
396.410601,0.020088,-0.222642,-0.031122,-9.882432,-9.884989,0.001065,-0.00639,0.003195,99243.52,30.43,-0.060989
396.430694,0.020093,-0.14364,-0.021546,-9.83934,-9.840412,0.00639,-0.005325,0.00426,99243.52,30.43,-0.016412
396.45078,0.020087,-0.110124,0.028728,-9.89919,-9.899844,-0.001065,-0.007455,0.007455,99243.52,30.43,-0.075844
396.470891,0.020111,-0.093366,-0.01197,-9.810612,-9.811064,-0.003195,-0.00852,0.003195,99243.52,30.43,0.012936
396.491164,0.020272,-0.067032,0.019152,-9.87525,-9.875496,0.00213,-0.005325,0,99246.02,30.43,-0.051496
396.511259,0.020095,-0.01197,-0.016758,-9.781884,-9.781906,0.001065,-0.007455,0.00426,99246.02,30.43,0.042094
396.531417,0.020158,-0.064638,-0.038304,-9.820188,-9.820475,0.001065,-0.001065,-0.001065,99246.02,30.43,0.003525
396.55151,0.020093,-0.019152,0.019152,-9.836946,-9.836983,0.00426,-0.00426,0.001065,99246.02,30.43,-0.012983
396.571617,0.020107,-0.021546,0.002394,-9.808218,-9.808242,-0.003195,-0.011715,0.00213,99246.02,30.43,0.015758
396.591759,0.020142,-0.004788,-0.009576,-9.798642,-9.798648,0.003195,-0.00852,0,99251.16,30.43,0.025352
396.611898,0.020139,-0.064638,-0.064638,-9.793854,-9.794281,0.001065,-0.00639,0,99251.16,30.43,0.029719
396.631986,0.020088,-0.069426,-0.076608,-9.817794,-9.818338,0,-0.00639,0.001065,99251.16,30.43,0.005662
396.652067,0.020081,-0.076608,-0.05985,-9.808218,-9.8087,-0.001065,-0.007455,0.00213,99251.16,30.43,0.0153
396.672162,0.020095,0,-0.055062,-9.848916,-9.84907,-0.00213,-0.00639,0.00426,99251.16,30.43,-0.02507
396.692393,0.020231,-0.002394,-0.02394,-9.805824,-9.805854,0.001065,-0.005325,0.00426,99251.16,30.43,0.018146
396.712493,0.0201,-0.067032,-0.031122,-9.858492,-9.858769,0.00213,-0.003195,0.00213,99253.69,30.43,-0.034769
396.732579,0.020086,-0.028728,-0.002394,-9.77949,-9.779532,0.001065,-0.00426,0.003195,99253.69,30.43,0.044468
396.75269,0.020111,-0.086184,0.045486,-9.820188,-9.820672,0.00213,-0.001065,0.00213,99253.69,30.43,0.003328
396.772784,0.020094,-0.129276,0.052668,-9.817794,-9.818786,0.003195,-0.005325,0.003195,99253.69,30.43,0.005214
396.793178,0.020394,-0.055062,0.002394,-9.808218,-9.808373,0.00213,-0.005325,0.00426,99253.69,30.43,0.015627
396.81339,0.020213,-0.07182,-0.002394,-9.83934,-9.839602,0.00426,-0.00426,0.003195,99253.69,30.43,-0.015602
396.833481,0.020091,-0.081396,0.062244,-9.82737,-9.827904,0.001065,-0.003195,0.001065,99258.71,30.43,-0.003904
396.853566,0.020084,-0.086184,0.055062,-9.824976,-9.825508,-0.001065,-0.007455,0.00426,99258.71,30.43,-0.001508
396.87366,0.020094,-0.100548,0.086184,-9.846522,-9.847413,0,-0.00852,0.001065,99258.71,30.43,-0.023413
396.893765,0.020105,-0.148428,0.057456,-9.870462,-9.871745,0.001065,-0.005325,0.003195,99258.71,30.43,-0.047745
396.913848,0.020082,-0.086184,-0.045486,-9.829764,-9.830247,0,-0.005325,0.001065,99258.71,30.43,-0.006247
396.933948,0.0201,-0.112518,0.057456,-9.906372,-9.907178,0.00213,-0.01278,0.00213,99261.38,30.43,-0.083178
396.954045,0.020098,-0.052668,-0.026334,-9.784278,-9.784455,-0.001065,-0.009585,0.00426,99261.38,30.43,0.039545
396.974154,0.020109,-0.07182,-0.002394,-9.805824,-9.806087,0,-0.005325,0.003195,99261.38,30.43,0.017913
396.994265,0.02011,-0.074214,0.02394,-9.85131,-9.851619,0,-0.00639,0.003195,99261.38,30.43,-0.027619
397.01436,0.020095,-0.021546,-0.05985,-9.808218,-9.808424,0.00213,-0.00426,0.00426,99261.38,30.43,0.015576
397.034453,0.020093,-0.02394,0.031122,-9.844128,-9.844206,0,-0.00426,0.00213,99261.38,30.43,-0.020206
397.054555,0.020103,-0.110124,-0.01197,-9.868068,-9.86869,-0.00213,-0.00639,0.00426,99266.7,30.43,-0.04469
397.074651,0.020096,-0.086184,-0.093366,-9.801036,-9.80186,0.003195,-0.003195,0.001065,99266.7,30.43,0.02214
397.094761,0.02011,-0.064638,0.002394,-9.896796,-9.897007,0.003195,-0.003195,0.003195,99266.7,30.43,-0.073007
397.114865,0.020103,-0.038304,-0.03591,-9.801036,-9.801177,0.00213,-0.00852,0.005325,99266.7,30.43,0.022823
397.135014,0.020149,-0.004788,-0.038304,-9.777096,-9.777172,0.005325,-0.00426,0.00213,99266.7,30.43,0.046828
397.155107,0.020093,-0.098154,0.057456,-9.841734,-9.842391,0.003195,-0.00639,0.00426,99266.7,30.43,-0.018391
397.175214,0.020107,-0.067032,0.028728,-9.769914,-9.770186,0,-0.005325,0.00426,99269.3,30.43,0.053814
397.195307,0.020093,-0.074214,0.033516,-9.796248,-9.796586,0.00426,0.00213,0.003195,99269.3,30.43,0.027414
397.215437,0.02013,-0.148428,0.088578,-9.86328,-9.864794,0.00213,-0.005325,0.003195,99269.3,30.43,-0.040794
397.235616,0.020179,-0.064638,0.031122,-9.772308,-9.772571,0,-0.003195,0.001065,99269.3,30.43,0.051429
397.255741,0.020125,-0.098154,0.086184,-9.829764,-9.830632,0.003195,-0.009585,0.00639,99269.3,30.43,-0.006632
397.275846,0.020105,-0.126882,0.050274,-9.829764,-9.830711,0,-0.001065,0.00213,99274.63,30.43,-0.006711
397.295948,0.020102,-0.112518,0.026334,-9.836946,-9.837625,0.001065,-0.005325,0.003195,99274.63,30.43,-0.013625
397.31608,0.020132,-0.074214,0.07182,-9.880038,-9.880578,0.001065,-0.00639,0.003195,99274.63,30.43,-0.056578
397.336198,0.020118,-0.129276,0.019152,-9.834552,-9.83542,0.00213,-0.005325,0.00213,99274.63,30.43,-0.01142
397.35631,0.020113,-0.124488,0.004788,-9.906372,-9.907155,0.003195,-0.00426,0.00426,99274.63,30.43,-0.083155
397.37641,0.0201,-0.050274,-0.004788,-9.856098,-9.856227,-0.00213,-0.00852,0.00213,99274.63,30.43,-0.032227
397.397153,0.020742,-0.026334,-0.031122,-9.882432,-9.882516,0.00426,-0.00639,0.00213,99277.31,30.43,-0.058516
397.417272,0.020119,-0.038304,0.002394,-9.848916,-9.848991,0.001065,-0.007455,0.00426,99277.31,30.43,-0.024991
397.437361,0.020089,-0.040698,-0.03591,-9.822582,-9.822732,-0.001065,-0.00426,0.00426,99277.31,30.43,0.001268
397.457448,0.020087,-0.002394,-0.09576,-9.79146,-9.791929,0.00639,-0.00426,0.003195,99277.31,30.43,0.032071
397.47755,0.020102,0,0.021546,-9.834552,-9.834576,0.00213,-0.00426,0.003195,99277.31,30.43,-0.010576
397.498006,0.020456,-0.004788,-0.026334,-9.805824,-9.805861,-0.00213,-0.007455,0.00426,99280.08,30.43,0.018139
397.518135,0.020129,-0.014364,-0.02394,-9.793854,-9.793894,0.00426,-0.00639,0.00213,99280.08,30.43,0.030106
397.538253,0.020118,-0.04788,-0.002394,-9.865674,-9.86579,0,-0.007455,0,99280.08,30.43,-0.04179
397.558379,0.020126,-0.040698,-0.019152,-9.777096,-9.777199,0.003195,-0.003195,0.003195,99280.08,30.43,0.046801
397.578481,0.020102,-0.100548,0.064638,-9.860886,-9.86161,0.003195,-0.007455,0.001065,99280.08,30.43,-0.03761
397.598949,0.020468,-0.129276,0.074214,-9.774702,-9.775839,0.001065,-0.009585,0.003195,99280.08,30.43,0.048161
397.620728,0.021779,-0.160398,-0.04788,-9.884826,-9.886243,0.00213,-0.00213,0.00426,99285.67,30.43,-0.062243
397.640809,0.020081,-0.105336,-0.043092,-9.822582,-9.823241,0.00213,-0.005325,0.00426,99285.67,30.43,0.000759
397.660912,0.020103,-0.150822,-0.033516,-9.856098,-9.857309,-0.001065,-0.007455,0.00639,99285.67,30.43,-0.033309
397.680999,0.020088,-0.110124,0.009576,-9.85131,-9.85193,0.001065,-0.005325,0.00426,99285.67,30.43,-0.02793
397.701095,0.020096,-0.14364,-0.02394,-9.82737,-9.828449,0,-0.011715,0.00639,99285.67,30.43,-0.004449
397.721462,0.020367,-0.076608,0.004788,-9.889614,-9.889912,0.00213,-0.005325,0.003195,99285.67,30.43,-0.065912
397.741554,0.020092,-0.064638,-0.02394,-9.793854,-9.794097,-0.00213,-0.007455,0.003195,99288.43,30.42,0.029903
397.761649,0.020095,-0.028728,-0.019152,-9.817794,-9.817855,0,-0.007455,0.00426,99288.43,30.42,0.006145
397.781739,0.02009,-0.007182,-0.007182,-9.8154,-9.815405,-0.00213,-0.007455,0.00426,99288.43,30.42,0.008595
397.80183,0.020091,-0.021546,0.007182,-9.784278,-9.784304,0.00213,-0.007455,0.00426,99288.43,30.42,0.039696
397.822132,0.020301,-0.014364,0.007182,-9.829764,-9.829777,0.005325,-0.00213,0.007455,99288.43,30.42,-0.005777
397.842216,0.020084,0.050274,0.057456,-9.80343,-9.803727,0.00213,-0.00852,0.003195,99294.2,30.43,0.020273
397.86231,0.020094,-0.028728,0.01197,-9.798642,-9.798691,0.005325,-0.003195,0.003195,99294.2,30.43,0.025309
397.882392,0.020082,0.062244,0.01197,-9.834552,-9.834756,0.005325,-0.001065,0.003195,99294.2,30.43,-0.010756
397.902485,0.020094,0,0.088578,-9.829764,-9.830163,0.00426,-0.003195,0.00213,99294.2,30.43,-0.006163
397.92284,0.020354,-0.122094,-0.026334,-9.882432,-9.883221,0,-0.00639,0.003195,99294.2,30.43,-0.059221
397.942922,0.020083,0.014364,0.067032,-9.877644,-9.877882,-0.001065,-0.007455,0.003195,99294.2,30.43,-0.053882
397.963016,0.020094,-0.141246,0.02394,-9.750762,-9.751814,0.003195,-0.003195,0.003195,99297.01,30.42,0.072186
397.983106,0.020091,-0.232218,-0.03591,-9.834552,-9.837359,0.00426,-0.00213,0.00213,99297.01,30.42,-0.013359
398.00327,0.020164,-0.10773,0.007182,-9.824976,-9.825569,0.00213,-0.005325,0.00426,99297.01,30.42,-0.001569
398.023586,0.020316,-0.165186,-0.01197,-9.858492,-9.859883,0.003195,-0.00426,0.00426,99297.01,30.42,-0.035883
398.043683,0.020097,-0.112518,-0.016758,-9.836946,-9.837604,0,-0.007455,0.005325,99297.01,30.42,-0.013604
398.06385,0.020166,-0.098154,0.04788,-9.858492,-9.859097,0.001065,-0.009585,0.00852,99302.5,30.42,-0.035097
398.083933,0.020083,-0.117306,-0.076608,-9.832158,-9.833156,0.00213,-0.003195,0.005325,99302.5,30.42,-0.009156
398.104046,0.020113,-0.067032,0.043092,-9.87525,-9.875572,0.003195,0,0.005325,99302.5,30.42,-0.051572
398.124618,0.020572,-0.04788,0.038304,-9.868068,-9.868258,-0.001065,-0.009585,0.005325,99302.5,30.42,-0.044258
398.146545,0.021927,-0.002394,0.050274,-9.798642,-9.798771,0.001065,-0.007455,0.003195,99302.5,30.42,0.025229
398.166636,0.020091,0.021546,0.045486,-9.822582,-9.822711,-0.001065,-0.005325,0.003195,99302.5,30.42,0.001289
398.186734,0.020098,0,-0.004788,-9.801036,-9.801037,0.001065,-0.00639,-0.001065,99305.13,30.42,0.022963
398.206844,0.02011,-0.021546,0.009576,-9.836946,-9.836974,0.00213,-0.003195,0.001065,99305.13,30.42,-0.012974
398.226932,0.020088,-0.01197,0.028728,-9.870462,-9.870511,0,-0.011715,-0.001065,99305.13,30.42,-0.046511
398.247215,0.020282,0.028728,0.038304,-9.745974,-9.746092,0,-0.00426,0.001065,99305.13,30.42,0.077908
398.267304,0.020089,-0.08379,0.014364,-9.832158,-9.832526,0.00213,-0.00426,-0.00213,99305.13,30.42,-0.008526
398.287391,0.020087,-0.026334,-0.04788,-9.793854,-9.794006,-0.001065,-0.009585,-0.001065,99305.13,30.42,0.029994
398.307492,0.020102,-0.043092,-0.093366,-9.71964,-9.720184,0,-0.005325,0.00213,99310.61,30.42,0.103816
398.32758,0.020088,-0.09576,-0.021546,-9.846522,-9.847011,0,-0.00639,0.003195,99310.61,30.42,-0.023011
398.347728,0.020148,-0.081396,-0.050274,-9.75555,-9.756019,-0.00213,-0.00639,0.005325,99310.61,30.42,0.067981
398.367813,0.020086,-0.014364,-0.057456,-9.820188,-9.820367,0.001065,-0.01065,0.00426,99310.61,30.42,0.003633
398.3879,0.020086,-0.08379,-0.038304,-9.793854,-9.794287,0.00213,-0.00213,0.00426,99310.61,30.42,0.029713
398.40805,0.02015,-0.01197,-0.040698,-9.729216,-9.729308,0.00426,-0.00213,0.00426,99310.61,30.42,0.094692
398.428222,0.020172,-0.086184,0.026334,-9.853704,-9.854116,0.00213,-0.003195,0.005325,99313.42,30.42,-0.030116
398.448433,0.020211,-0.093366,0.057456,-9.79146,-9.792074,0,-0.003195,0.00213,99313.42,30.42,0.031926
398.468523,0.02009,-0.074214,-0.004788,-9.868068,-9.868348,0.003195,-0.00639,0.003195,99313.42,30.42,-0.044348
398.488608,0.020085,-0.090972,0.090972,-9.853704,-9.854544,0,-0.00426,0.003195,99313.42,30.42,-0.030544
398.508717,0.020108,-0.165186,0.052668,-9.841734,-9.843261,0.00213,-0.00852,0.005325,99313.42,30.42,-0.019261
398.529027,0.02031,-0.110124,0.040698,-9.834552,-9.835253,0.001065,-0.00426,0.003195,99313.42,30.42,-0.011253
398.549683,0.020656,-0.13167,0.043092,-9.932706,-9.933672,0.003195,-0.005325,0.003195,99316.25,30.42,-0.109672
398.571458,0.021774,-0.150822,0.002394,-9.868068,-9.869221,0.00213,-0.00426,0.003195,99316.25,30.42,-0.045221
398.591595,0.020138,-0.13167,0.093366,-9.832158,-9.833483,0.001065,-0.007455,0.00213,99316.25,30.42,-0.009483
398.611687,0.020091,-0.098154,0.004788,-9.872856,-9.873345,0.001065,-0.00213,0.00426,99316.25,30.42,-0.049345
398.631791,0.020104,-0.04788,-0.040698,-9.8154,-9.815601,0.001065,-0.003195,0.00213,99316.25,30.42,0.008399
398.65189,0.020099,0.021546,-0.014364,-9.820188,-9.820222,0.001065,-0.007455,0.003195,99321.7,30.42,0.003778
398.672245,0.020355,-0.03591,-0.038304,-9.801036,-9.801177,0.003195,-0.00639,0.00852,99321.7,30.42,0.022823
398.692337,0.020092,0,-0.02394,-9.808218,-9.808247,-0.001065,-0.005325,0.00639,99321.7,30.42,0.015753
398.712531,0.020194,-0.043092,-0.016758,-9.810612,-9.810721,0,-0.005325,0.003195,99321.7,30.42,0.013279
398.732637,0.020106,-0.031122,-0.040698,-9.808218,-9.808352,0.00426,-0.00213,0.005325,99321.7,30.42,0.015648
398.75274,0.020103,0,-0.002394,-9.820188,-9.820188,0,-0.009585,0.003195,99321.7,30.42,0.003812
398.773395,0.020655,-0.055062,-0.02394,-9.801036,-9.80122,0.00213,-0.00426,0.00213,99324.44,30.42,0.02278
398.795149,0.021754,0.002394,-0.019152,-9.841734,-9.841753,0.005325,-0.00426,0.00213,99324.44,30.42,-0.017753
398.81524,0.020092,-0.07182,-0.002394,-9.829764,-9.830027,0.003195,-0.00213,-0.001065,99324.44,30.42,-0.006027
398.835355,0.020115,-0.067032,-0.016758,-9.824976,-9.825219,0.00213,-0.005325,-0.00213,99324.44,30.42,-0.001219
398.855483,0.020128,-0.126882,0.02394,-9.880038,-9.880882,0.005325,-0.005325,0.001065,99324.44,30.42,-0.056882
398.875586,0.020103,-0.09576,-0.04788,-9.820188,-9.820772,0.00213,-0.00426,0.001065,99329.92,30.42,0.003228
398.895948,0.020362,-0.122094,-0.045486,-9.85131,-9.852172,0.001065,-0.00426,-0.001065,99329.92,30.42,-0.028172
398.916037,0.02009,-0.146034,0.002394,-9.805824,-9.806912,0.001065,-0.007455,-0.001065,99329.92,30.42,0.017088
398.936171,0.020133,-0.110124,-0.007182,-9.810612,-9.811233,0,-0.003195,-0.001065,99329.92,30.42,0.012767
398.956236,0.020065,-0.129276,0.002394,-9.918342,-9.919185,-0.00213,-0.00639,0,99329.92,30.42,-0.095185
398.976323,0.020088,-0.114912,0,-9.817794,-9.818466,-0.001065,-0.00852,0.00213,99329.92,30.42,0.005534
398.996497,0.020174,-0.100548,0.026334,-9.836946,-9.837495,0,-0.00639,0.00426,99332.69,30.42,-0.013495
399.016589,0.020092,-0.045486,-0.009576,-9.858492,-9.858602,0.001065,-0.007455,0.00426,99332.69,30.42,-0.034602
399.03668,0.02009,-0.038304,-0.04788,-9.75555,-9.755743,0.001065,-0.00639,0.003195,99332.69,30.42,0.068257
399.056772,0.020093,-0.088578,-0.009576,-9.89919,-9.899591,0.00213,-0.00852,0.00426,99332.69,30.42,-0.075591
399.076864,0.020092,-0.02394,-0.01197,-9.820188,-9.820224,0.001065,-0.00639,0.001065,99332.69,30.42,0.003776
399.098944,0.022079,0.028728,0.009576,-9.79146,-9.791507,0.001065,-0.005325,0.007455,99332.69,30.42,0.032493
399.119502,0.020558,0.01197,0.057456,-9.870462,-9.870636,0.00213,-0.00639,0.00426,99338.14,30.42,-0.046636
399.139604,0.020102,-0.007182,-0.014364,-9.796248,-9.796261,0.005325,-0.003195,0.00426,99338.14,30.42,0.027739
399.15969,0.020086,-0.02394,-0.064638,-9.894402,-9.894642,0.003195,-0.00639,0.003195,99338.14,30.42,-0.070642
399.179777,0.020087,-0.090972,0.07182,-9.858492,-9.859173,0,-0.009585,0.001065,99338.14,30.42,-0.035173
399.199881,0.020105,-0.088578,-0.009576,-9.824976,-9.82538,0.005325,-0.00639,0.001065,99338.14,30.42,-0.00138
399.220336,0.020454,-0.114912,0.014364,-9.865674,-9.866354,0.00213,-0.00426,0,99340.88,30.42,-0.042354
399.24042,0.020085,-0.134064,0.007182,-9.894402,-9.895313,0.001065,-0.00639,0.003195,99340.88,30.42,-0.071313
399.260502,0.020082,-0.100548,-0.016758,-9.796248,-9.796778,0.003195,-0.009585,0.003195,99340.88,30.42,0.027222
399.280598,0.020096,-0.09576,0.03591,-9.85131,-9.851841,-0.001065,-0.01065,0.00213,99340.88,30.42,-0.027841
399.300722,0.020123,-0.1197,-0.069426,-9.841734,-9.842707,0,-0.005325,0.00213,99340.88,30.42,-0.018707
399.321393,0.020671,-0.038304,-0.050274,-9.77949,-9.779694,0,-0.003195,0.00426,99340.88,30.42,0.044306
399.34346,0.022067,-0.098154,-0.043092,-9.824976,-9.825561,-0.001065,-0.007455,0.00426,99346.19,30.42,-0.001561
399.365597,0.022136,-0.033516,-0.019152,-9.85131,-9.851386,0.003195,-0.00639,0.00639,99346.19,30.42,-0.027386
399.385681,0.020084,-0.028728,-0.026334,-9.765126,-9.765204,0.003195,-0.005325,0.005325,99346.19,30.42,0.058796
399.405771,0.02009,-0.007182,-0.002394,-9.786672,-9.786675,0.00213,-0.00426,0.00426,99346.19,30.42,0.037325
399.425878,0.020107,-0.021546,0.040698,-9.856098,-9.856206,0.00213,-0.003195,0.00426,99346.19,30.42,-0.032206
399.445987,0.020109,0.002394,0.021546,-9.808218,-9.808242,0,-0.003195,0.003195,99348.83,30.42,0.015758
399.466277,0.02029,-0.076608,0.057456,-9.848916,-9.849382,0.00213,-0.00639,0.00426,99348.83,30.42,-0.025382
399.48637,0.020093,-0.069426,0.038304,-9.810612,-9.810932,0.005325,-0.005325,0.00213,99348.83,30.42,0.013068
399.506469,0.020099,-0.064638,-0.019152,-9.85131,-9.851541,0.003195,-0.005325,0.003195,99348.83,30.42,-0.027541
399.526596,0.020127,-0.043092,0.02394,-9.817794,-9.817918,0.00426,-0.00426,0.003195,99348.83,30.42,0.006082
399.546696,0.0201,-0.086184,0.021546,-9.82737,-9.827772,0.00213,-0.00639,0.00426,99348.83,30.42,-0.003772
399.567036,0.02034,-0.021546,-0.057456,-9.796248,-9.79644,0.005325,-0.00852,0.005325,99351.65,30.42,0.02756
399.587123,0.020086,-0.13167,-0.016758,-9.930312,-9.931199,0.00639,-0.005325,0.001065,99351.65,30.42,-0.107199
399.607224,0.020101,0.01197,-0.016758,-9.801036,-9.801058,0.003195,-0.005325,0.001065,99351.65,30.42,0.022942
399.627327,0.020103,-0.112518,-0.146034,-9.77949,-9.781227,0.003195,-0.005325,0.00426,99351.65,30.42,0.042773
399.647426,0.020099,-0.146034,-0.088578,-9.896796,-9.89827,0.00852,0,0.003195,99351.65,30.42,-0.07427
399.667562,0.020136,-0.16758,-0.08379,-9.798642,-9.800433,0.001065,-0.009585,0.00213,99351.65,30.42,0.023567
399.687711,0.020149,-0.141246,-0.126882,-9.89919,-9.901011,-0.00639,-0.013845,0.00426,99357,30.42,-0.077011
399.707856,0.020145,-0.134064,-0.052668,-9.808218,-9.809276,0.00213,-0.00639,0.00426,99357,30.42,0.014724
399.727953,0.020097,-0.150822,-0.043092,-9.784278,-9.785535,-0.001065,-0.009585,0.00426,99357,30.42,0.038465
399.748106,0.020153,-0.138852,-0.067032,-9.82737,-9.828579,-0.001065,-0.005325,0.007455,99357,30.42,-0.004579
399.768213,0.020107,-0.158004,-0.016758,-9.889614,-9.89089,0.001065,-0.00426,0.00639,99357,30.42,-0.06689
399.788313,0.0201,-0.026334,0.016758,-9.784278,-9.784328,0.00213,-0.005325,0.00426,99359.89,30.42,0.039672
399.808417,0.020104,-0.169974,0.117306,-9.870462,-9.872622,-0.001065,-0.009585,0.00426,99359.89,30.42,-0.048622
399.828509,0.020092,-0.100548,0.088578,-9.86328,-9.86419,0.005325,-0.003195,0.001065,99359.89,30.42,-0.04019
399.848692,0.020183,-0.002394,0.045486,-9.853704,-9.853809,0.00426,-0.005325,0,99359.89,30.42,-0.029809
399.868889,0.020197,-0.05985,0.16758,-9.913554,-9.915151,-0.003195,-0.011715,0.001065,99359.89,30.42,-0.091151
399.888986,0.020098,-0.050274,0.021546,-9.844128,-9.84428,0,-0.003195,0.001065,99359.89,30.42,-0.02028
399.909083,0.020097,-0.090972,-0.007182,-9.822582,-9.823006,-0.003195,-0.009585,-0.001065,99365.22,30.42,0.000994
399.929182,0.020099,-0.10773,0.019152,-9.841734,-9.842342,-0.003195,-0.01278,0.001065,99365.22,30.42,-0.018342
399.949292,0.02011,-0.093366,-0.062244,-9.79146,-9.792103,0.00213,0,0,99365.22,30.42,0.031897
399.969589,0.020297,-0.088578,-0.076608,-9.836946,-9.837643,-0.00213,-0.01278,0.003195,99365.22,30.42,-0.013643
399.989666,0.020078,-0.088578,-0.01197,-9.808218,-9.808625,0.005325,-0.003195,0.005325,99365.22,30.42,0.015375
400.009767,0.0201,-0.100548,-0.126882,-9.774702,-9.776043,0.00426,-0.00213,0.00426,99367.91,30.42,0.047957
400.02985,0.020083,-0.102942,-0.002394,-9.810612,-9.811152,0.00213,-0.00426,0.003195,99367.91,30.42,0.012848
400.049948,0.020098,-0.153216,-0.016758,-9.769914,-9.77113,0.001065,-0.007455,0.005325,99367.91,30.42,0.05287
400.070297,0.020349,-0.1197,0.04788,-9.829764,-9.830609,0.003195,-0.00426,0.003195,99367.91,30.42,-0.006609
400.090376,0.02008,-0.10773,0.004788,-9.796248,-9.796842,0.003195,-0.007455,0.00639,99367.91,30.42,0.027158
400.110489,0.020113,-0.16758,-0.002394,-9.805824,-9.807256,0.007455,0.00213,0.003195,99367.91,30.42,0.016744
400.130577,0.020088,-0.117306,0.02394,-9.841734,-9.842462,0.00639,0,0.003195,99373.56,30.42,-0.018462
400.15067,0.020093,-0.09576,0.043092,-9.865674,-9.866233,0.003195,-0.00639,0.00426,99373.56,30.42,-0.042233
400.170885,0.020215,-0.093366,0.050274,-9.880038,-9.880607,0.00213,-0.00213,0.003195,99373.56,30.42,-0.056607
400.190972,0.020087,-0.1197,-0.014364,-9.865674,-9.866411,0,-0.005325,0.003195,99373.56,30.42,-0.042411
400.21105,0.020078,-0.134064,-0.026334,-9.77949,-9.780444,0.00213,-0.00852,0.003195,99373.56,30.42,0.043556
400.231144,0.020094,-0.138852,-0.031122,-9.92313,-9.92415,0.005325,-0.00213,0.00213,99373.56,30.42,-0.10015
400.251254,0.02011,-0.03591,-0.021546,-9.836946,-9.837035,-0.001065,-0.00639,0.003195,99376.39,30.42,-0.013035
400.271359,0.020105,-0.08379,-0.016758,-9.820188,-9.82056,0,-0.00852,0.005325,99376.39,30.42,0.00344
400.291461,0.020102,-0.057456,-0.033516,-9.858492,-9.858716,0.001065,-0.007455,0.001065,99376.39,30.42,-0.034716
400.311664,0.020202,-0.098154,-0.045486,-9.82737,-9.827965,0.00426,-0.00852,0.001065,99376.39,30.42,-0.003965
400.33176,0.020096,0.03591,-0.014364,-9.796248,-9.796324,0.003195,-0.00639,0.00213,99376.39,30.42,0.027676
400.351924,0.020165,-0.05985,0.038304,-9.856098,-9.856354,0,-0.00852,0.001065,99379.33,30.42,-0.032354
400.372172,0.020247,0.033516,0.016758,-9.75555,-9.755622,0,-0.005325,0.001065,99379.33,30.42,0.068378
400.392303,0.020131,0.033516,0.031122,-9.915948,-9.916053,0.003195,-0.00426,0.001065,99379.33,30.42,-0.092053
400.412424,0.020121,-0.043092,0.033516,-9.83934,-9.839491,0.00426,-0.00426,0.001065,99379.33,30.42,-0.015491
400.432527,0.020103,-0.062244,-0.04788,-9.793854,-9.794169,0.00213,-0.00639,0,99379.33,30.42,0.029831
400.452656,0.02013,-0.052668,0.031122,-9.844128,-9.844318,0.00213,-0.00426,-0.001065,99379.33,30.42,-0.020318
400.472823,0.020166,-0.122094,0.004788,-9.822582,-9.823342,0.003195,-0.003195,0.001065,99385.08,30.42,0.000658
400.492914,0.020092,-0.07182,0.052668,-9.860886,-9.861288,0.00213,-0.001065,-0.001065,99385.08,30.42,-0.037288
400.513002,0.020087,-0.100548,0.069426,-9.85131,-9.852068,0.003195,-0.005325,0.001065,99385.08,30.42,-0.028068
400.533096,0.020094,-0.110124,-0.004788,-9.79146,-9.79208,0.001065,-0.00639,0,99385.08,30.42,0.03192
400.553269,0.020174,-0.126882,-0.007182,-9.88722,-9.888037,0,-0.00639,0.001065,99385.08,30.42,-0.064037
400.57361,0.020341,-0.122094,-0.004788,-9.858492,-9.859249,0.001065,-0.005325,-0.001065,99385.08,30.42,-0.035249
400.593698,0.020087,-0.043092,-0.02394,-9.796248,-9.796372,0,-0.00426,0,99387.89,30.42,0.027628
400.613915,0.020217,-0.050274,-0.01197,-9.880038,-9.880173,0.001065,-0.011715,0.003195,99387.89,30.42,-0.056173
400.634089,0.020174,-0.007182,-0.004788,-9.8154,-9.815404,-0.001065,-0.00426,0.00213,99387.89,30.42,0.008596
400.654188,0.020099,-0.09576,-0.086184,-9.801036,-9.801883,0.00213,-0.007455,0.00426,99387.89,30.42,0.022117
400.674339,0.020151,-0.016758,-0.05985,-9.846522,-9.846718,0.00213,-0.00852,0.005325,99387.89,30.42,-0.022718
400.694453,0.020115,-0.069426,-0.031122,-9.8154,-9.815695,-0.001065,-0.009585,0.007455,99393.4,30.42,0.008305
400.714547,0.020094,0,-0.031122,-9.757944,-9.757994,-0.001065,-0.00426,0.00639,99393.4,30.42,0.066006
400.734646,0.020098,-0.057456,0.028728,-9.817794,-9.818004,-0.001065,-0.01065,0.007455,99393.4,30.42,0.005996
400.754735,0.020089,-0.03591,-0.002394,-9.79146,-9.791526,0.003195,0,0.005325,99393.4,30.42,0.032474
400.775044,0.02031,-0.067032,-0.04788,-9.844128,-9.844473,0.001065,-0.005325,0.007455,99393.4,30.42,-0.020473
400.795142,0.020098,-0.04788,-0.02394,-9.856098,-9.856243,0,-0.00852,0.001065,99393.4,30.42,-0.032243
400.815282,0.02014,-0.067032,-0.052668,-9.77949,-9.779862,0.001065,-0.00639,0.00213,99396.4,30.42,0.044138
400.835406,0.020124,-0.07182,-0.045486,-9.86328,-9.863646,-0.001065,-0.009585,0.003195,99396.4,30.42,-0.039646
400.855513,0.020107,-0.019152,-0.086184,-9.77949,-9.779889,0,-0.00639,0.00213,99396.4,30.42,0.044111
400.875604,0.02009,-0.026334,-0.05985,-9.80343,-9.803648,0.003195,0.001065,0,99396.4,30.42,0.020352
400.895705,0.020101,-0.067032,-0.009576,-9.74358,-9.743815,0.001065,-0.007455,0.00213,99396.4,30.42,0.080185
400.915884,0.020179,-0.122094,-0.069426,-9.832158,-9.833161,0.003195,-0.001065,0,99396.4,30.42,-0.009161
400.935988,0.020104,-0.124488,-0.014364,-9.8154,-9.8162,0.00426,-0.00426,0.001065,99402.14,30.42,0.0078
400.956089,0.020101,-0.102942,0.009576,-9.865674,-9.866216,0,-0.00639,0.00213,99402.14,30.42,-0.042216
400.97618,0.020091,-0.062244,0.019152,-9.817794,-9.81801,0.001065,-0.001065,0.001065,99402.14,30.42,0.00599
400.996268,0.020088,-0.122094,0.007182,-9.844128,-9.844888,0.001065,-0.005325,0.003195,99402.14,30.42,-0.020888
401.01639,0.020122,-0.14364,0.055062,-9.8154,-9.816605,-0.003195,-0.01065,0.00426,99402.14,30.42,0.007395
401.036481,0.020091,-0.112518,-0.009576,-9.841734,-9.842382,0.003195,-0.001065,0.00426,99404.99,30.42,-0.018382
401.056594,0.020113,-0.088578,0.03591,-9.88722,-9.887682,0,-0.005325,0.00639,99404.99,30.42,-0.063682
401.076838,0.020244,-0.1197,0.01197,-9.829764,-9.8305,0.00426,-0.00426,0.00639,99404.99,30.42,-0.0065
401.096965,0.020127,-0.129276,0.009576,-9.918342,-9.919189,0.001065,-0.007455,0.00639,99404.99,30.42,-0.095189
401.117099,0.020134,-0.10773,-0.026334,-9.868068,-9.868691,0.00213,-0.00426,0.005325,99404.99,30.42,-0.044691
401.13719,0.020092,-0.076608,-0.038304,-9.832158,-9.832531,0.003195,-0.005325,0.00639,99404.99,30.42,-0.008531
